File: 0.5ml.txt
'RawData - Storage 161900 - 0.5ml.spc'
'Wavelength nm.','Abs.'
300.00,0.408
300.50,0.401
301.00,0.393
301.50,0.385
302.00,0.377
302.50,0.369
303.00,0.361
303.50,0.353
304.00,0.344
304.50,0.336
305.00,0.329
305.50,0.322
306.00,0.316
306.50,0.308
307.00,0.300
307.50,0.292
308.00,0.285
308.50,0.277
309.00,0.271
309.50,0.264
310.00,0.257
310.50,0.251
311.00,0.245
311.50,0.240
312.00,0.234
312.50,0.229
313.00,0.224
313.50,0.219
314.00,0.214
314.50,0.210
315.00,0.205
315.50,0.202
316.00,0.198
316.50,0.194
317.00,0.191
317.50,0.188
318.00,0.185
318.50,0.183
319.00,0.181
319.50,0.179
320.00,0.177
320.50,0.176
321.00,0.175
321.50,0.173
322.00,0.172
322.50,0.172
323.00,0.173
323.50,0.173
324.00,0.173
324.50,0.174
325.00,0.175
325.50,0.176
326.00,0.178
326.50,0.179
327.00,0.182
327.50,0.184
328.00,0.187
328.50,0.190
329.00,0.193
329.50,0.197
330.00,0.201
330.50,0.206
331.00,0.211
331.50,0.216
332.00,0.223
332.50,0.229
333.00,0.237
333.50,0.244
334.00,0.253
334.50,0.262
335.00,0.271
335.50,0.282
336.00,0.292
336.50,0.303
337.00,0.315
337.50,0.329
338.00,0.342
338.50,0.355
339.00,0.368
339.50,0.382
340.00,0.397
340.50,0.414
341.00,0.429
341.50,0.444
342.00,0.458
342.50,0.472
343.00,0.487
343.50,0.502
344.00,0.516
344.50,0.531
345.00,0.544
345.50,0.557
346.00,0.570
346.50,0.582
347.00,0.594
347.50,0.605
348.00,0.617
348.50,0.627
349.00,0.639
349.50,0.648
350.00,0.657
350.50,0.665
351.00,0.674
351.50,0.684
352.00,0.691
352.50,0.699
353.00,0.708
353.50,0.715
354.00,0.724
354.50,0.733
355.00,0.741
355.50,0.748
356.00,0.755
356.50,0.763
357.00,0.772
357.50,0.780
358.00,0.789
358.50,0.797
359.00,0.805
359.50,0.816
360.00,0.824
360.50,0.832
361.00,0.842
361.50,0.851
362.00,0.861
362.50,0.870
363.00,0.880
363.50,0.890
364.00,0.900
364.50,0.913
365.00,0.921
365.50,0.929
366.00,0.942
366.50,0.952
367.00,0.963
367.50,0.974
368.00,0.984
368.50,0.996
369.00,1.006
369.50,1.017
370.00,1.028
370.50,1.041
371.00,1.051
371.50,1.061
372.00,1.072
372.50,1.083
373.00,1.095
373.50,1.108
374.00,1.114
374.50,1.129
375.00,1.140
375.50,1.151
376.00,1.161
376.50,1.170
377.00,1.182
377.50,1.191
378.00,1.202
378.50,1.215
379.00,1.223
379.50,1.236
380.00,1.246
380.50,1.257
381.00,1.265
381.50,1.276
382.00,1.286
382.50,1.298
383.00,1.307
383.50,1.318
384.00,1.328
384.50,1.341
385.00,1.353
385.50,1.361
386.00,1.372
386.50,1.383
387.00,1.397
387.50,1.408
388.00,1.419
388.50,1.431
389.00,1.445
389.50,1.456
390.00,1.472
390.50,1.481
391.00,1.495
391.50,1.509
392.00,1.521
392.50,1.534
393.00,1.547
393.50,1.558
394.00,1.574
394.50,1.585
395.00,1.601
395.50,1.615
396.00,1.631
396.50,1.644
397.00,1.659
397.50,1.675
398.00,1.686
398.50,1.700
399.00,1.717
399.50,1.731
400.00,1.747
400.50,1.761
401.00,1.776
401.50,1.796
402.00,1.807
402.50,1.822
403.00,1.836
403.50,1.853
404.00,1.872
404.50,1.888
405.00,1.902
405.50,1.920
406.00,1.933
406.50,1.944
407.00,1.964
407.50,1.985
408.00,2.004
408.50,2.016
409.00,2.030
409.50,2.047
410.00,2.062
410.50,2.073
411.00,2.094
411.50,2.109
412.00,2.120
412.50,2.132
413.00,2.146
413.50,2.158
414.00,2.176
414.50,2.192
415.00,2.200
415.50,2.213
416.00,2.229
416.50,2.238
417.00,2.250
417.50,2.265
418.00,2.271
418.50,2.278
419.00,2.293
419.50,2.307
420.00,2.314
420.50,2.323
421.00,2.336
421.50,2.339
422.00,2.349
422.50,2.360
423.00,2.369
423.50,2.375
424.00,2.389
424.50,2.390
425.00,2.390
425.50,2.407
426.00,2.406
426.50,2.400
427.00,2.421
427.50,2.419
428.00,2.417
428.50,2.418
429.00,2.425
429.50,2.428
430.00,2.431
430.50,2.443
431.00,2.435
431.50,2.425
432.00,2.422
432.50,2.423
433.00,2.428
433.50,2.425
434.00,2.423
434.50,2.420
435.00,2.420
435.50,2.405
436.00,2.407
436.50,2.406
437.00,2.401
437.50,2.396
438.00,2.388
438.50,2.385
439.00,2.380
439.50,2.368
440.00,2.362
440.50,2.360
441.00,2.346
441.50,2.337
442.00,2.331
442.50,2.318
443.00,2.307
443.50,2.301
444.00,2.290
444.50,2.279
445.00,2.269
445.50,2.253
446.00,2.243
446.50,2.230
447.00,2.218
447.50,2.203
448.00,2.191
448.50,2.178
449.00,2.168
449.50,2.151
450.00,2.140
450.50,2.125
451.00,2.113
451.50,2.098
452.00,2.083
452.50,2.066
453.00,2.053
453.50,2.034
454.00,2.020
454.50,2.002
455.00,1.988
455.50,1.972
456.00,1.956
456.50,1.938
457.00,1.918
457.50,1.903
458.00,1.886
458.50,1.870
459.00,1.852
459.50,1.833
460.00,1.818
460.50,1.798
461.00,1.781
461.50,1.765
462.00,1.748
462.50,1.731
463.00,1.713
463.50,1.694
464.00,1.677
464.50,1.659
465.00,1.642
465.50,1.625
466.00,1.607
466.50,1.589
467.00,1.572
467.50,1.555
468.00,1.539
468.50,1.523
469.00,1.505
469.50,1.489
470.00,1.471
470.50,1.455
471.00,1.439
471.50,1.423
472.00,1.408
472.50,1.392
473.00,1.375
473.50,1.358
474.00,1.343
474.50,1.328
475.00,1.312
475.50,1.297
476.00,1.281
476.50,1.266
477.00,1.251
477.50,1.237
478.00,1.223
478.50,1.208
479.00,1.194
479.50,1.181
480.00,1.167
480.50,1.153
481.00,1.139
481.50,1.127
482.00,1.114
482.50,1.101
483.00,1.088
483.50,1.074
484.00,1.061
484.50,1.049
485.00,1.037
485.50,1.025
486.00,1.012
486.50,1.000
487.00,0.988
487.50,0.977
488.00,0.965
488.50,0.954
489.00,0.943
489.50,0.932
490.00,0.922
490.50,0.911
491.00,0.900
491.50,0.891
492.00,0.880
492.50,0.870
493.00,0.861
493.50,0.851
494.00,0.842
494.50,0.833
495.00,0.823
495.50,0.814
496.00,0.805
496.50,0.796
497.00,0.788
497.50,0.779
498.00,0.771
498.50,0.763
499.00,0.754
499.50,0.746
500.00,0.738
500.50,0.731
501.00,0.723
501.50,0.715
502.00,0.708
502.50,0.701
503.00,0.693
503.50,0.686
504.00,0.679
504.50,0.672
505.00,0.665
505.50,0.658
506.00,0.652
506.50,0.644
507.00,0.638
507.50,0.632
508.00,0.625
508.50,0.618
509.00,0.612
509.50,0.606
510.00,0.600
510.50,0.594
511.00,0.589
511.50,0.583
512.00,0.577
512.50,0.571
513.00,0.566
513.50,0.561
514.00,0.555
514.50,0.549
515.00,0.544
515.50,0.539
516.00,0.533
516.50,0.528
517.00,0.523
517.50,0.518
518.00,0.514
518.50,0.509
519.00,0.504
519.50,0.499
520.00,0.494
520.50,0.490
521.00,0.485
521.50,0.481
522.00,0.476
522.50,0.472
523.00,0.468
523.50,0.464
524.00,0.459
524.50,0.455
525.00,0.451
525.50,0.447
526.00,0.443
526.50,0.439
527.00,0.435
527.50,0.431
528.00,0.427
528.50,0.423
529.00,0.419
529.50,0.416
530.00,0.412
530.50,0.408
531.00,0.405
531.50,0.401
532.00,0.398
532.50,0.394
533.00,0.391
533.50,0.387
534.00,0.384
534.50,0.381
535.00,0.377
535.50,0.374
536.00,0.371
536.50,0.368
537.00,0.364
537.50,0.361
538.00,0.359
538.50,0.356
539.00,0.353
539.50,0.350
540.00,0.347
540.50,0.344
541.00,0.341
541.50,0.338
542.00,0.336
542.50,0.333
543.00,0.331
543.50,0.328
544.00,0.326
544.50,0.323
545.00,0.320
545.50,0.318
546.00,0.315
546.50,0.313
547.00,0.311
547.50,0.308
548.00,0.306
548.50,0.304
549.00,0.301
549.50,0.299
550.00,0.297
550.50,0.295
551.00,0.292
551.50,0.290
552.00,0.288
552.50,0.286
553.00,0.284
553.50,0.282
554.00,0.280
554.50,0.278
555.00,0.276
555.50,0.274
556.00,0.272
556.50,0.270
557.00,0.268
557.50,0.266
558.00,0.265
558.50,0.263
559.00,0.261
559.50,0.259
560.00,0.258
560.50,0.256
561.00,0.254
561.50,0.252
562.00,0.251
562.50,0.249
563.00,0.247
563.50,0.246
564.00,0.244
564.50,0.243
565.00,0.241
565.50,0.240
566.00,0.238
566.50,0.236
567.00,0.235
567.50,0.233
568.00,0.232
568.50,0.230
569.00,0.229
569.50,0.228
570.00,0.226
570.50,0.225
571.00,0.223
571.50,0.222
572.00,0.221
572.50,0.219
573.00,0.218
573.50,0.217
574.00,0.215
574.50,0.214
575.00,0.213
575.50,0.212
576.00,0.210
576.50,0.209
577.00,0.208
577.50,0.207
578.00,0.206
578.50,0.204
579.00,0.203
579.50,0.202
580.00,0.201
580.50,0.200
581.00,0.199
581.50,0.198
582.00,0.196
582.50,0.195
583.00,0.194
583.50,0.193
584.00,0.192
584.50,0.191
585.00,0.190
585.50,0.189
586.00,0.188
586.50,0.187
587.00,0.186
587.50,0.185
588.00,0.184
588.50,0.183
589.00,0.182
589.50,0.181
590.00,0.180
590.50,0.179
591.00,0.178
591.50,0.178
592.00,0.177
592.50,0.176
593.00,0.175
593.50,0.174
594.00,0.173
594.50,0.172
595.00,0.171
595.50,0.171
596.00,0.170
596.50,0.169
597.00,0.168
597.50,0.168
598.00,0.167
598.50,0.166
599.00,0.165
599.50,0.165
600.00,0.164
600.50,0.163
601.00,0.162
601.50,0.162
602.00,0.161
602.50,0.160
603.00,0.160
603.50,0.159
604.00,0.158
604.50,0.157
605.00,0.157
605.50,0.156
606.00,0.155
606.50,0.155
607.00,0.154
607.50,0.153
608.00,0.153
608.50,0.152
609.00,0.152
609.50,0.151
610.00,0.150
610.50,0.150
611.00,0.149
611.50,0.148
612.00,0.148
612.50,0.147
613.00,0.147
613.50,0.146
614.00,0.145
614.50,0.145
615.00,0.144
615.50,0.144
616.00,0.143
616.50,0.143
617.00,0.142
617.50,0.141
618.00,0.141
618.50,0.140
619.00,0.140
619.50,0.139
620.00,0.139
620.50,0.138
621.00,0.138
621.50,0.137
622.00,0.136
622.50,0.136
623.00,0.135
623.50,0.135
624.00,0.134
624.50,0.134
625.00,0.133
625.50,0.133
626.00,0.132
626.50,0.132
627.00,0.131
627.50,0.131
628.00,0.130
628.50,0.130
629.00,0.129
629.50,0.129
630.00,0.128
630.50,0.128
631.00,0.127
631.50,0.127
632.00,0.127
632.50,0.126
633.00,0.126
633.50,0.125
634.00,0.125
634.50,0.124
635.00,0.124
635.50,0.123
636.00,0.123
636.50,0.122
637.00,0.122
637.50,0.121
638.00,0.121
638.50,0.120
639.00,0.120
639.50,0.120
640.00,0.119
640.50,0.119
641.00,0.118
641.50,0.118
642.00,0.117
642.50,0.117
643.00,0.117
643.50,0.116
644.00,0.116
644.50,0.115
645.00,0.115
645.50,0.115
646.00,0.114
646.50,0.114
647.00,0.113
647.50,0.113
648.00,0.113
648.50,0.112
649.00,0.112
649.50,0.112
650.00,0.111
650.50,0.111
651.00,0.111
651.50,0.110
652.00,0.110
652.50,0.109
653.00,0.109
653.50,0.109
654.00,0.108
654.50,0.108
655.00,0.108
655.50,0.107
656.00,0.107
656.50,0.107
657.00,0.106
657.50,0.106
658.00,0.106
658.50,0.105
659.00,0.105
659.50,0.105
660.00,0.104
660.50,0.104
661.00,0.104
661.50,0.103
662.00,0.103
662.50,0.103
663.00,0.102
663.50,0.102
664.00,0.102
664.50,0.102
665.00,0.101
665.50,0.101
666.00,0.101
666.50,0.100
667.00,0.100
667.50,0.100
668.00,0.099
668.50,0.099
669.00,0.099
669.50,0.099
670.00,0.098
670.50,0.098
671.00,0.098
671.50,0.097
672.00,0.097
672.50,0.097
673.00,0.096
673.50,0.096
674.00,0.096
674.50,0.096
675.00,0.095
675.50,0.095
676.00,0.095
676.50,0.094
677.00,0.094
677.50,0.094
678.00,0.094
678.50,0.093
679.00,0.093
679.50,0.093
680.00,0.092
680.50,0.092
681.00,0.092
681.50,0.092
682.00,0.091
682.50,0.091
683.00,0.091
683.50,0.090
684.00,0.090
684.50,0.090
685.00,0.090
685.50,0.089
686.00,0.089
686.50,0.089
687.00,0.089
687.50,0.088
688.00,0.088
688.50,0.088
689.00,0.088
689.50,0.087
690.00,0.087
690.50,0.087
691.00,0.087
691.50,0.086
692.00,0.086
692.50,0.086
693.00,0.086
693.50,0.085
694.00,0.085
694.50,0.085
695.00,0.085
695.50,0.084
696.00,0.084
696.50,0.084
697.00,0.084
697.50,0.083
698.00,0.083
698.50,0.083
699.00,0.083
699.50,0.082
700.00,0.082
700.50,0.082
701.00,0.082
701.50,0.081
702.00,0.081
702.50,0.081
703.00,0.081
703.50,0.080
704.00,0.080
704.50,0.080
705.00,0.080
705.50,0.079
706.00,0.079
706.50,0.079
707.00,0.079
707.50,0.079
708.00,0.078
708.50,0.078
709.00,0.078
709.50,0.078
710.00,0.077
710.50,0.077
711.00,0.077
711.50,0.077
712.00,0.077
712.50,0.076
713.00,0.076
713.50,0.076
714.00,0.076
714.50,0.076
715.00,0.075
715.50,0.075
716.00,0.075
716.50,0.075
717.00,0.075
717.50,0.074
718.00,0.074
718.50,0.074
719.00,0.074
719.50,0.074
720.00,0.073
720.50,0.073
721.00,0.073
721.50,0.073
722.00,0.073
722.50,0.073
723.00,0.072
723.50,0.072
724.00,0.072
724.50,0.072
725.00,0.072
725.50,0.071
726.00,0.071
726.50,0.071
727.00,0.071
727.50,0.071
728.00,0.071
728.50,0.070
729.00,0.070
729.50,0.070
730.00,0.070
730.50,0.070
731.00,0.070
731.50,0.069
732.00,0.069
732.50,0.069
733.00,0.069
733.50,0.069
734.00,0.069
734.50,0.068
735.00,0.068
735.50,0.068
736.00,0.068
736.50,0.068
737.00,0.068
737.50,0.067
738.00,0.067
738.50,0.067
739.00,0.067
739.50,0.067
740.00,0.067
740.50,0.066
741.00,0.066
741.50,0.066
742.00,0.066
742.50,0.066
743.00,0.066
743.50,0.065
744.00,0.065
744.50,0.065
745.00,0.065
745.50,0.065
746.00,0.064
746.50,0.064
747.00,0.064
747.50,0.064
748.00,0.064
748.50,0.064
749.00,0.063
749.50,0.063
750.00,0.063
750.50,0.063
751.00,0.063
751.50,0.062
752.00,0.062
752.50,0.062
753.00,0.062
753.50,0.062
754.00,0.062
754.50,0.061
755.00,0.061
755.50,0.061
756.00,0.061
756.50,0.061
757.00,0.060
757.50,0.060
758.00,0.060
758.50,0.060
759.00,0.060
759.50,0.060
760.00,0.059
760.50,0.059
761.00,0.059
761.50,0.059
762.00,0.059
762.50,0.059
763.00,0.058
763.50,0.058
764.00,0.058
764.50,0.058
765.00,0.058
765.50,0.058
766.00,0.057
766.50,0.057
767.00,0.057
767.50,0.057
768.00,0.057
768.50,0.057
769.00,0.056
769.50,0.056
770.00,0.056
770.50,0.056
771.00,0.056
771.50,0.056
772.00,0.056
772.50,0.055
773.00,0.055
773.50,0.055
774.00,0.055
774.50,0.055
775.00,0.055
775.50,0.054
776.00,0.054
776.50,0.054
777.00,0.054
777.50,0.054
778.00,0.054
778.50,0.054
779.00,0.054
779.50,0.053
780.00,0.053
780.50,0.053
781.00,0.053
781.50,0.053
782.00,0.053
782.50,0.053
783.00,0.053
783.50,0.052
784.00,0.052
784.50,0.052
785.00,0.052
785.50,0.052
786.00,0.052
786.50,0.052
787.00,0.052
787.50,0.051
788.00,0.051
788.50,0.051
789.00,0.051
789.50,0.051
790.00,0.051
790.50,0.051
791.00,0.051
791.50,0.051
792.00,0.050
792.50,0.050
793.00,0.050
793.50,0.050
794.00,0.050
794.50,0.050
795.00,0.050
795.50,0.050
796.00,0.050
796.50,0.050
797.00,0.049
797.50,0.049
798.00,0.049
798.50,0.049
799.00,0.049
799.50,0.049
800.00,0.049