File: 1.5ml_diluted2.txt
'RawData - Storage 162117 - 1.5ml_diluted2.spc'
'Wavelength nm.','Abs.'
300.00,0.127
300.50,0.124
301.00,0.122
301.50,0.120
302.00,0.117
302.50,0.115
303.00,0.113
303.50,0.110
304.00,0.108
304.50,0.105
305.00,0.103
305.50,0.101
306.00,0.099
306.50,0.097
307.00,0.094
307.50,0.092
308.00,0.090
308.50,0.087
309.00,0.085
309.50,0.084
310.00,0.081
310.50,0.079
311.00,0.078
311.50,0.076
312.00,0.074
312.50,0.073
313.00,0.071
313.50,0.069
314.00,0.068
314.50,0.067
315.00,0.065
315.50,0.064
316.00,0.063
316.50,0.061
317.00,0.060
317.50,0.059
318.00,0.059
318.50,0.058
319.00,0.057
319.50,0.057
320.00,0.056
320.50,0.056
321.00,0.055
321.50,0.055
322.00,0.055
322.50,0.054
323.00,0.055
323.50,0.054
324.00,0.055
324.50,0.055
325.00,0.056
325.50,0.056
326.00,0.057
326.50,0.057
327.00,0.058
327.50,0.059
328.00,0.059
328.50,0.061
329.00,0.061
329.50,0.062
330.00,0.064
330.50,0.065
331.00,0.066
331.50,0.068
332.00,0.070
332.50,0.072
333.00,0.074
333.50,0.076
334.00,0.079
334.50,0.082
335.00,0.085
335.50,0.088
336.00,0.091
336.50,0.095
337.00,0.099
337.50,0.103
338.00,0.107
338.50,0.111
339.00,0.116
339.50,0.120
340.00,0.124
340.50,0.129
341.00,0.133
341.50,0.137
342.00,0.141
342.50,0.147
343.00,0.150
343.50,0.155
344.00,0.160
344.50,0.164
345.00,0.168
345.50,0.172
346.00,0.176
346.50,0.179
347.00,0.183
347.50,0.186
348.00,0.189
348.50,0.192
349.00,0.197
349.50,0.199
350.00,0.202
350.50,0.205
351.00,0.207
351.50,0.210
352.00,0.212
352.50,0.215
353.00,0.217
353.50,0.220
354.00,0.223
354.50,0.225
355.00,0.227
355.50,0.230
356.00,0.232
356.50,0.234
357.00,0.237
357.50,0.239
358.00,0.242
358.50,0.244
359.00,0.247
359.50,0.250
360.00,0.252
360.50,0.255
361.00,0.258
361.50,0.260
362.00,0.263
362.50,0.266
363.00,0.269
363.50,0.272
364.00,0.275
364.50,0.278
365.00,0.281
365.50,0.284
366.00,0.287
366.50,0.290
367.00,0.294
367.50,0.297
368.00,0.300
368.50,0.304
369.00,0.307
369.50,0.310
370.00,0.313
370.50,0.317
371.00,0.320
371.50,0.323
372.00,0.327
372.50,0.330
373.00,0.333
373.50,0.337
374.00,0.340
374.50,0.344
375.00,0.347
375.50,0.350
376.00,0.353
376.50,0.356
377.00,0.359
377.50,0.363
378.00,0.366
378.50,0.369
379.00,0.372
379.50,0.375
380.00,0.378
380.50,0.382
381.00,0.385
381.50,0.388
382.00,0.391
382.50,0.394
383.00,0.398
383.50,0.401
384.00,0.404
384.50,0.407
385.00,0.411
385.50,0.414
386.00,0.418
386.50,0.421
387.00,0.424
387.50,0.428
388.00,0.431
388.50,0.435
389.00,0.438
389.50,0.442
390.00,0.446
390.50,0.450
391.00,0.454
391.50,0.457
392.00,0.462
392.50,0.465
393.00,0.469
393.50,0.473
394.00,0.478
394.50,0.482
395.00,0.486
395.50,0.490
396.00,0.494
396.50,0.499
397.00,0.503
397.50,0.507
398.00,0.512
398.50,0.516
399.00,0.521
399.50,0.525
400.00,0.530
400.50,0.534
401.00,0.539
401.50,0.544
402.00,0.548
402.50,0.553
403.00,0.558
403.50,0.563
404.00,0.568
404.50,0.573
405.00,0.577
405.50,0.582
406.00,0.586
406.50,0.591
407.00,0.596
407.50,0.601
408.00,0.606
408.50,0.611
409.00,0.615
409.50,0.620
410.00,0.625
410.50,0.629
411.00,0.634
411.50,0.638
412.00,0.642
412.50,0.647
413.00,0.651
413.50,0.655
414.00,0.659
414.50,0.663
415.00,0.667
415.50,0.671
416.00,0.674
416.50,0.678
417.00,0.682
417.50,0.685
418.00,0.689
418.50,0.692
419.00,0.695
419.50,0.698
420.00,0.700
420.50,0.703
421.00,0.706
421.50,0.708
422.00,0.711
422.50,0.713
423.00,0.715
423.50,0.717
424.00,0.719
424.50,0.721
425.00,0.722
425.50,0.724
426.00,0.725
426.50,0.726
427.00,0.727
427.50,0.728
428.00,0.729
428.50,0.729
429.00,0.730
429.50,0.730
430.00,0.730
430.50,0.730
431.00,0.730
431.50,0.730
432.00,0.730
432.50,0.729
433.00,0.728
433.50,0.728
434.00,0.727
434.50,0.726
435.00,0.724
435.50,0.723
436.00,0.722
436.50,0.720
437.00,0.718
437.50,0.716
438.00,0.714
438.50,0.712
439.00,0.710
439.50,0.708
440.00,0.706
440.50,0.703
441.00,0.700
441.50,0.697
442.00,0.694
442.50,0.692
443.00,0.689
443.50,0.685
444.00,0.682
444.50,0.679
445.00,0.675
445.50,0.671
446.00,0.668
446.50,0.664
447.00,0.660
447.50,0.656
448.00,0.652
448.50,0.648
449.00,0.644
449.50,0.640
450.00,0.635
450.50,0.631
451.00,0.627
451.50,0.622
452.00,0.618
452.50,0.613
453.00,0.608
453.50,0.603
454.00,0.598
454.50,0.594
455.00,0.589
455.50,0.584
456.00,0.579
456.50,0.574
457.00,0.568
457.50,0.563
458.00,0.558
458.50,0.553
459.00,0.547
459.50,0.542
460.00,0.537
460.50,0.532
461.00,0.527
461.50,0.521
462.00,0.516
462.50,0.511
463.00,0.506
463.50,0.500
464.00,0.495
464.50,0.490
465.00,0.485
465.50,0.480
466.00,0.474
466.50,0.469
467.00,0.464
467.50,0.459
468.00,0.454
468.50,0.449
469.00,0.444
469.50,0.439
470.00,0.434
470.50,0.430
471.00,0.425
471.50,0.420
472.00,0.415
472.50,0.411
473.00,0.406
473.50,0.401
474.00,0.396
474.50,0.392
475.00,0.388
475.50,0.383
476.00,0.379
476.50,0.374
477.00,0.370
477.50,0.365
478.00,0.361
478.50,0.357
479.00,0.353
479.50,0.349
480.00,0.345
480.50,0.341
481.00,0.337
481.50,0.333
482.00,0.330
482.50,0.326
483.00,0.322
483.50,0.318
484.00,0.314
484.50,0.311
485.00,0.307
485.50,0.304
486.00,0.300
486.50,0.297
487.00,0.293
487.50,0.290
488.00,0.287
488.50,0.283
489.00,0.280
489.50,0.277
490.00,0.274
490.50,0.271
491.00,0.268
491.50,0.265
492.00,0.262
492.50,0.259
493.00,0.256
493.50,0.254
494.00,0.251
494.50,0.248
495.00,0.245
495.50,0.243
496.00,0.240
496.50,0.238
497.00,0.235
497.50,0.233
498.00,0.230
498.50,0.228
499.00,0.225
499.50,0.223
500.00,0.221
500.50,0.219
501.00,0.216
501.50,0.214
502.00,0.212
502.50,0.210
503.00,0.208
503.50,0.206
504.00,0.204
504.50,0.202
505.00,0.200
505.50,0.198
506.00,0.196
506.50,0.194
507.00,0.192
507.50,0.190
508.00,0.188
508.50,0.186
509.00,0.185
509.50,0.183
510.00,0.181
510.50,0.179
511.00,0.178
511.50,0.176
512.00,0.174
512.50,0.173
513.00,0.171
513.50,0.170
514.00,0.168
514.50,0.166
515.00,0.165
515.50,0.163
516.00,0.162
516.50,0.160
517.00,0.159
517.50,0.157
518.00,0.156
518.50,0.154
519.00,0.153
519.50,0.152
520.00,0.150
520.50,0.149
521.00,0.148
521.50,0.146
522.00,0.145
522.50,0.144
523.00,0.142
523.50,0.141
524.00,0.140
524.50,0.139
525.00,0.137
525.50,0.136
526.00,0.135
526.50,0.134
527.00,0.133
527.50,0.132
528.00,0.130
528.50,0.129
529.00,0.128
529.50,0.127
530.00,0.126
530.50,0.125
531.00,0.124
531.50,0.123
532.00,0.122
532.50,0.121
533.00,0.120
533.50,0.119
534.00,0.118
534.50,0.117
535.00,0.116
535.50,0.115
536.00,0.114
536.50,0.113
537.00,0.112
537.50,0.111
538.00,0.110
538.50,0.109
539.00,0.108
539.50,0.107
540.00,0.107
540.50,0.106
541.00,0.105
541.50,0.104
542.00,0.103
542.50,0.103
543.00,0.102
543.50,0.101
544.00,0.100
544.50,0.099
545.00,0.099
545.50,0.098
546.00,0.097
546.50,0.097
547.00,0.096
547.50,0.095
548.00,0.095
548.50,0.094
549.00,0.093
549.50,0.093
550.00,0.092
550.50,0.091
551.00,0.091
551.50,0.090
552.00,0.089
552.50,0.089
553.00,0.088
553.50,0.087
554.00,0.087
554.50,0.086
555.00,0.086
555.50,0.085
556.00,0.085
556.50,0.084
557.00,0.084
557.50,0.083
558.00,0.083
558.50,0.082
559.00,0.081
559.50,0.081
560.00,0.080
560.50,0.080
561.00,0.079
561.50,0.079
562.00,0.079
562.50,0.078
563.00,0.078
563.50,0.077
564.00,0.077
564.50,0.076
565.00,0.076
565.50,0.075
566.00,0.075
566.50,0.075
567.00,0.074
567.50,0.074
568.00,0.073
568.50,0.073
569.00,0.072
569.50,0.072
570.00,0.072
570.50,0.071
571.00,0.071
571.50,0.070
572.00,0.070
572.50,0.070
573.00,0.069
573.50,0.069
574.00,0.069
574.50,0.068
575.00,0.068
575.50,0.068
576.00,0.067
576.50,0.067
577.00,0.066
577.50,0.066
578.00,0.066
578.50,0.066
579.00,0.065
579.50,0.065
580.00,0.065
580.50,0.064
581.00,0.064
581.50,0.064
582.00,0.063
582.50,0.063
583.00,0.063
583.50,0.062
584.00,0.062
584.50,0.062
585.00,0.061
585.50,0.061
586.00,0.061
586.50,0.061
587.00,0.060
587.50,0.060
588.00,0.060
588.50,0.059
589.00,0.059
589.50,0.059
590.00,0.059
590.50,0.058
591.00,0.058
591.50,0.058
592.00,0.058
592.50,0.057
593.00,0.057
593.50,0.057
594.00,0.056
594.50,0.056
595.00,0.056
595.50,0.056
596.00,0.055
596.50,0.055
597.00,0.055
597.50,0.055
598.00,0.054
598.50,0.054
599.00,0.054
599.50,0.054
600.00,0.054
600.50,0.053
601.00,0.053
601.50,0.053
602.00,0.053
602.50,0.052
603.00,0.052
603.50,0.052
604.00,0.052
604.50,0.051
605.00,0.051
605.50,0.051
606.00,0.051
606.50,0.051
607.00,0.050
607.50,0.050
608.00,0.050
608.50,0.050
609.00,0.050
609.50,0.049
610.00,0.049
610.50,0.049
611.00,0.049
611.50,0.048
612.00,0.048
612.50,0.048
613.00,0.048
613.50,0.048
614.00,0.047
614.50,0.047
615.00,0.047
615.50,0.047
616.00,0.047
616.50,0.046
617.00,0.046
617.50,0.046
618.00,0.046
618.50,0.046
619.00,0.046
619.50,0.045
620.00,0.045
620.50,0.045
621.00,0.045
621.50,0.045
622.00,0.044
622.50,0.044
623.00,0.044
623.50,0.044
624.00,0.044
624.50,0.044
625.00,0.043
625.50,0.043
626.00,0.043
626.50,0.043
627.00,0.043
627.50,0.043
628.00,0.042
628.50,0.042
629.00,0.042
629.50,0.042
630.00,0.042
630.50,0.042
631.00,0.042
631.50,0.041
632.00,0.041
632.50,0.041
633.00,0.041
633.50,0.041
634.00,0.041
634.50,0.040
635.00,0.040
635.50,0.040
636.00,0.040
636.50,0.040
637.00,0.040
637.50,0.040
638.00,0.039
638.50,0.039
639.00,0.039
639.50,0.039
640.00,0.039
640.50,0.039
641.00,0.039
641.50,0.039
642.00,0.038
642.50,0.038
643.00,0.038
643.50,0.038
644.00,0.038
644.50,0.038
645.00,0.038
645.50,0.038
646.00,0.037
646.50,0.037
647.00,0.037
647.50,0.037
648.00,0.037
648.50,0.037
649.00,0.037
649.50,0.037
650.00,0.037
650.50,0.036
651.00,0.036
651.50,0.036
652.00,0.036
652.50,0.036
653.00,0.036
653.50,0.036
654.00,0.036
654.50,0.036
655.00,0.036
655.50,0.035
656.00,0.035
656.50,0.035
657.00,0.035
657.50,0.035
658.00,0.035
658.50,0.035
659.00,0.035
659.50,0.035
660.00,0.035
660.50,0.034
661.00,0.034
661.50,0.034
662.00,0.034
662.50,0.034
663.00,0.034
663.50,0.034
664.00,0.034
664.50,0.034
665.00,0.034
665.50,0.033
666.00,0.033
666.50,0.033
667.00,0.033
667.50,0.033
668.00,0.033
668.50,0.033
669.00,0.033
669.50,0.033
670.00,0.033
670.50,0.033
671.00,0.033
671.50,0.032
672.00,0.032
672.50,0.032
673.00,0.032
673.50,0.032
674.00,0.032
674.50,0.032
675.00,0.032
675.50,0.032
676.00,0.032
676.50,0.032
677.00,0.031
677.50,0.031
678.00,0.031
678.50,0.031
679.00,0.031
679.50,0.031
680.00,0.031
680.50,0.031
681.00,0.031
681.50,0.031
682.00,0.031
682.50,0.031
683.00,0.030
683.50,0.030
684.00,0.030
684.50,0.030
685.00,0.030
685.50,0.030
686.00,0.030
686.50,0.030
687.00,0.030
687.50,0.030
688.00,0.030
688.50,0.030
689.00,0.030
689.50,0.029
690.00,0.029
690.50,0.029
691.00,0.029
691.50,0.029
692.00,0.029
692.50,0.029
693.00,0.029
693.50,0.029
694.00,0.029
694.50,0.029
695.00,0.029
695.50,0.029
696.00,0.028
696.50,0.028
697.00,0.028
697.50,0.028
698.00,0.028
698.50,0.028
699.00,0.028
699.50,0.028
700.00,0.028
700.50,0.028
701.00,0.028
701.50,0.028
702.00,0.028
702.50,0.028
703.00,0.027
703.50,0.027
704.00,0.027
704.50,0.027
705.00,0.027
705.50,0.027
706.00,0.027
706.50,0.027
707.00,0.027
707.50,0.027
708.00,0.027
708.50,0.027
709.00,0.027
709.50,0.026
710.00,0.026
710.50,0.026
711.00,0.026
711.50,0.026
712.00,0.026
712.50,0.026
713.00,0.026
713.50,0.026
714.00,0.026
714.50,0.026
715.00,0.026
715.50,0.026
716.00,0.026
716.50,0.026
717.00,0.025
717.50,0.025
718.00,0.025
718.50,0.025
719.00,0.025
719.50,0.025
720.00,0.025
720.50,0.025
721.00,0.025
721.50,0.025
722.00,0.025
722.50,0.025
723.00,0.025
723.50,0.025
724.00,0.025
724.50,0.025
725.00,0.025
725.50,0.024
726.00,0.024
726.50,0.024
727.00,0.024
727.50,0.024
728.00,0.024
728.50,0.024
729.00,0.024
729.50,0.024
730.00,0.024
730.50,0.024
731.00,0.024
731.50,0.024
732.00,0.024
732.50,0.024
733.00,0.024
733.50,0.024
734.00,0.024
734.50,0.023
735.00,0.023
735.50,0.023
736.00,0.023
736.50,0.023
737.00,0.023
737.50,0.023
738.00,0.023
738.50,0.023
739.00,0.023
739.50,0.023
740.00,0.023
740.50,0.023
741.00,0.023
741.50,0.023
742.00,0.023
742.50,0.023
743.00,0.023
743.50,0.023
744.00,0.023
744.50,0.022
745.00,0.022
745.50,0.022
746.00,0.022
746.50,0.022
747.00,0.022
747.50,0.022
748.00,0.022
748.50,0.022
749.00,0.022
749.50,0.022
750.00,0.022
750.50,0.022
751.00,0.022
751.50,0.022
752.00,0.022
752.50,0.022
753.00,0.022
753.50,0.022
754.00,0.022
754.50,0.021
755.00,0.021
755.50,0.021
756.00,0.021
756.50,0.021
757.00,0.021
757.50,0.021
758.00,0.021
758.50,0.021
759.00,0.021
759.50,0.021
760.00,0.021
760.50,0.021
761.00,0.021
761.50,0.021
762.00,0.021
762.50,0.021
763.00,0.021
763.50,0.021
764.00,0.021
764.50,0.021
765.00,0.021
765.50,0.021
766.00,0.020
766.50,0.020
767.00,0.020
767.50,0.020
768.00,0.020
768.50,0.020
769.00,0.020
769.50,0.020
770.00,0.020
770.50,0.020
771.00,0.020
771.50,0.020
772.00,0.020
772.50,0.020
773.00,0.020
773.50,0.020
774.00,0.020
774.50,0.020
775.00,0.020
775.50,0.020
776.00,0.020
776.50,0.020
777.00,0.020
777.50,0.020
778.00,0.020
778.50,0.020
779.00,0.020
779.50,0.019
780.00,0.019
780.50,0.019
781.00,0.019
781.50,0.019
782.00,0.019
782.50,0.019
783.00,0.019
783.50,0.019
784.00,0.019
784.50,0.019
785.00,0.019
785.50,0.019
786.00,0.019
786.50,0.019
787.00,0.019
787.50,0.019
788.00,0.019
788.50,0.019
789.00,0.019
789.50,0.019
790.00,0.019
790.50,0.019
791.00,0.019
791.50,0.019
792.00,0.019
792.50,0.019
793.00,0.019
793.50,0.019
794.00,0.019
794.50,0.019
795.00,0.019
795.50,0.019
796.00,0.018
796.50,0.018
797.00,0.018
797.50,0.018
798.00,0.018
798.50,0.018
799.00,0.018
799.50,0.018
800.00,0.018