File: 1ml_diluted2.txt
'RawData - Storage 161502 - 1ml_diluted2.spc'
'Wavelength nm.','Abs.'
300.00,0.127
300.50,0.125
301.00,0.123
301.50,0.121
302.00,0.119
302.50,0.117
303.00,0.114
303.50,0.112
304.00,0.110
304.50,0.107
305.00,0.105
305.50,0.104
306.00,0.102
306.50,0.099
307.00,0.097
307.50,0.094
308.00,0.092
308.50,0.090
309.00,0.088
309.50,0.086
310.00,0.084
310.50,0.082
311.00,0.081
311.50,0.079
312.00,0.078
312.50,0.076
313.00,0.075
313.50,0.074
314.00,0.073
314.50,0.071
315.00,0.070
315.50,0.069
316.00,0.067
316.50,0.066
317.00,0.065
317.50,0.064
318.00,0.063
318.50,0.062
319.00,0.062
319.50,0.061
320.00,0.061
320.50,0.060
321.00,0.059
321.50,0.059
322.00,0.058
322.50,0.058
323.00,0.058
323.50,0.058
324.00,0.058
324.50,0.059
325.00,0.059
325.50,0.059
326.00,0.060
326.50,0.061
327.00,0.061
327.50,0.062
328.00,0.062
328.50,0.063
329.00,0.064
329.50,0.066
330.00,0.067
330.50,0.068
331.00,0.069
331.50,0.071
332.00,0.072
332.50,0.074
333.00,0.076
333.50,0.078
334.00,0.080
334.50,0.083
335.00,0.085
335.50,0.088
336.00,0.091
336.50,0.094
337.00,0.097
337.50,0.101
338.00,0.104
338.50,0.108
339.00,0.111
339.50,0.115
340.00,0.120
340.50,0.123
341.00,0.128
341.50,0.132
342.00,0.136
342.50,0.140
343.00,0.143
343.50,0.147
344.00,0.151
344.50,0.155
345.00,0.159
345.50,0.161
346.00,0.164
346.50,0.168
347.00,0.171
347.50,0.174
348.00,0.176
348.50,0.179
349.00,0.182
349.50,0.184
350.00,0.187
350.50,0.189
351.00,0.191
351.50,0.193
352.00,0.195
352.50,0.197
353.00,0.199
353.50,0.202
354.00,0.204
354.50,0.205
355.00,0.207
355.50,0.209
356.00,0.211
356.50,0.213
357.00,0.215
357.50,0.217
358.00,0.220
358.50,0.222
359.00,0.223
359.50,0.226
360.00,0.228
360.50,0.230
361.00,0.233
361.50,0.235
362.00,0.237
362.50,0.239
363.00,0.242
363.50,0.245
364.00,0.247
364.50,0.249
365.00,0.252
365.50,0.254
366.00,0.257
366.50,0.259
367.00,0.262
367.50,0.265
368.00,0.268
368.50,0.270
369.00,0.273
369.50,0.275
370.00,0.279
370.50,0.281
371.00,0.284
371.50,0.286
372.00,0.289
372.50,0.292
373.00,0.295
373.50,0.297
374.00,0.300
374.50,0.302
375.00,0.306
375.50,0.308
376.00,0.310
376.50,0.313
377.00,0.315
377.50,0.318
378.00,0.320
378.50,0.323
379.00,0.325
379.50,0.328
380.00,0.330
380.50,0.333
381.00,0.335
381.50,0.338
382.00,0.340
382.50,0.343
383.00,0.345
383.50,0.348
384.00,0.350
384.50,0.353
385.00,0.356
385.50,0.359
386.00,0.361
386.50,0.364
387.00,0.366
387.50,0.369
388.00,0.372
388.50,0.374
389.00,0.378
389.50,0.380
390.00,0.383
390.50,0.386
391.00,0.389
391.50,0.393
392.00,0.396
392.50,0.399
393.00,0.402
393.50,0.405
394.00,0.408
394.50,0.412
395.00,0.415
395.50,0.419
396.00,0.422
396.50,0.426
397.00,0.429
397.50,0.433
398.00,0.436
398.50,0.440
399.00,0.443
399.50,0.446
400.00,0.450
400.50,0.454
401.00,0.457
401.50,0.461
402.00,0.465
402.50,0.469
403.00,0.473
403.50,0.477
404.00,0.481
404.50,0.484
405.00,0.488
405.50,0.492
406.00,0.496
406.50,0.500
407.00,0.504
407.50,0.508
408.00,0.512
408.50,0.516
409.00,0.520
409.50,0.524
410.00,0.527
410.50,0.531
411.00,0.535
411.50,0.539
412.00,0.543
412.50,0.546
413.00,0.550
413.50,0.553
414.00,0.557
414.50,0.561
415.00,0.564
415.50,0.568
416.00,0.571
416.50,0.574
417.00,0.577
417.50,0.580
418.00,0.584
418.50,0.586
419.00,0.589
419.50,0.592
420.00,0.594
420.50,0.597
421.00,0.600
421.50,0.602
422.00,0.604
422.50,0.606
423.00,0.608
423.50,0.611
424.00,0.613
424.50,0.614
425.00,0.616
425.50,0.618
426.00,0.619
426.50,0.620
427.00,0.622
427.50,0.623
428.00,0.624
428.50,0.625
429.00,0.626
429.50,0.627
430.00,0.627
430.50,0.628
431.00,0.628
431.50,0.629
432.00,0.629
432.50,0.629
433.00,0.629
433.50,0.629
434.00,0.628
434.50,0.628
435.00,0.628
435.50,0.627
436.00,0.627
436.50,0.626
437.00,0.625
437.50,0.624
438.00,0.623
438.50,0.622
439.00,0.621
439.50,0.619
440.00,0.618
440.50,0.616
441.00,0.615
441.50,0.613
442.00,0.611
442.50,0.610
443.00,0.608
443.50,0.606
444.00,0.604
444.50,0.602
445.00,0.599
445.50,0.597
446.00,0.595
446.50,0.592
447.00,0.590
447.50,0.587
448.00,0.585
448.50,0.582
449.00,0.579
449.50,0.576
450.00,0.574
450.50,0.571
451.00,0.568
451.50,0.565
452.00,0.562
452.50,0.559
453.00,0.555
453.50,0.552
454.00,0.549
454.50,0.545
455.00,0.542
455.50,0.539
456.00,0.535
456.50,0.531
457.00,0.528
457.50,0.524
458.00,0.520
458.50,0.517
459.00,0.512
459.50,0.509
460.00,0.505
460.50,0.501
461.00,0.497
461.50,0.494
462.00,0.490
462.50,0.486
463.00,0.482
463.50,0.478
464.00,0.474
464.50,0.470
465.00,0.466
465.50,0.462
466.00,0.458
466.50,0.454
467.00,0.450
467.50,0.446
468.00,0.442
468.50,0.438
469.00,0.434
469.50,0.430
470.00,0.426
470.50,0.423
471.00,0.419
471.50,0.415
472.00,0.411
472.50,0.407
473.00,0.403
473.50,0.399
474.00,0.395
474.50,0.392
475.00,0.388
475.50,0.384
476.00,0.380
476.50,0.376
477.00,0.373
477.50,0.369
478.00,0.365
478.50,0.362
479.00,0.358
479.50,0.355
480.00,0.351
480.50,0.347
481.00,0.344
481.50,0.341
482.00,0.337
482.50,0.334
483.00,0.330
483.50,0.327
484.00,0.324
484.50,0.320
485.00,0.317
485.50,0.314
486.00,0.310
486.50,0.307
487.00,0.304
487.50,0.301
488.00,0.298
488.50,0.295
489.00,0.291
489.50,0.289
490.00,0.286
490.50,0.283
491.00,0.280
491.50,0.277
492.00,0.274
492.50,0.271
493.00,0.269
493.50,0.266
494.00,0.263
494.50,0.261
495.00,0.258
495.50,0.255
496.00,0.253
496.50,0.250
497.00,0.248
497.50,0.245
498.00,0.243
498.50,0.241
499.00,0.238
499.50,0.236
500.00,0.234
500.50,0.231
501.00,0.229
501.50,0.227
502.00,0.225
502.50,0.223
503.00,0.220
503.50,0.218
504.00,0.216
504.50,0.214
505.00,0.212
505.50,0.210
506.00,0.208
506.50,0.206
507.00,0.204
507.50,0.203
508.00,0.201
508.50,0.199
509.00,0.197
509.50,0.195
510.00,0.193
510.50,0.191
511.00,0.190
511.50,0.188
512.00,0.186
512.50,0.185
513.00,0.183
513.50,0.181
514.00,0.180
514.50,0.178
515.00,0.176
515.50,0.175
516.00,0.173
516.50,0.172
517.00,0.170
517.50,0.169
518.00,0.167
518.50,0.166
519.00,0.164
519.50,0.163
520.00,0.162
520.50,0.160
521.00,0.159
521.50,0.158
522.00,0.156
522.50,0.155
523.00,0.154
523.50,0.152
524.00,0.151
524.50,0.150
525.00,0.148
525.50,0.147
526.00,0.146
526.50,0.145
527.00,0.144
527.50,0.142
528.00,0.141
528.50,0.140
529.00,0.139
529.50,0.138
530.00,0.137
530.50,0.136
531.00,0.134
531.50,0.133
532.00,0.132
532.50,0.131
533.00,0.130
533.50,0.129
534.00,0.128
534.50,0.127
535.00,0.126
535.50,0.125
536.00,0.124
536.50,0.123
537.00,0.122
537.50,0.121
538.00,0.120
538.50,0.119
539.00,0.118
539.50,0.117
540.00,0.116
540.50,0.116
541.00,0.115
541.50,0.114
542.00,0.113
542.50,0.112
543.00,0.111
543.50,0.111
544.00,0.110
544.50,0.109
545.00,0.108
545.50,0.107
546.00,0.107
546.50,0.106
547.00,0.105
547.50,0.104
548.00,0.104
548.50,0.103
549.00,0.102
549.50,0.101
550.00,0.101
550.50,0.100
551.00,0.099
551.50,0.099
552.00,0.098
552.50,0.097
553.00,0.097
553.50,0.096
554.00,0.095
554.50,0.095
555.00,0.094
555.50,0.093
556.00,0.093
556.50,0.092
557.00,0.092
557.50,0.091
558.00,0.090
558.50,0.090
559.00,0.089
559.50,0.089
560.00,0.088
560.50,0.088
561.00,0.087
561.50,0.086
562.00,0.086
562.50,0.085
563.00,0.085
563.50,0.084
564.00,0.084
564.50,0.083
565.00,0.083
565.50,0.082
566.00,0.082
566.50,0.081
567.00,0.081
567.50,0.080
568.00,0.080
568.50,0.080
569.00,0.079
569.50,0.079
570.00,0.078
570.50,0.078
571.00,0.077
571.50,0.077
572.00,0.076
572.50,0.076
573.00,0.076
573.50,0.075
574.00,0.075
574.50,0.075
575.00,0.074
575.50,0.074
576.00,0.073
576.50,0.073
577.00,0.073
577.50,0.072
578.00,0.072
578.50,0.072
579.00,0.071
579.50,0.071
580.00,0.071
580.50,0.070
581.00,0.070
581.50,0.070
582.00,0.069
582.50,0.069
583.00,0.069
583.50,0.068
584.00,0.068
584.50,0.068
585.00,0.067
585.50,0.067
586.00,0.067
586.50,0.066
587.00,0.066
587.50,0.066
588.00,0.065
588.50,0.065
589.00,0.065
589.50,0.065
590.00,0.064
590.50,0.064
591.00,0.064
591.50,0.064
592.00,0.063
592.50,0.063
593.00,0.063
593.50,0.063
594.00,0.062
594.50,0.062
595.00,0.062
595.50,0.062
596.00,0.061
596.50,0.061
597.00,0.061
597.50,0.061
598.00,0.060
598.50,0.060
599.00,0.060
599.50,0.060
600.00,0.059
600.50,0.059
601.00,0.059
601.50,0.059
602.00,0.059
602.50,0.058
603.00,0.058
603.50,0.058
604.00,0.058
604.50,0.058
605.00,0.057
605.50,0.057
606.00,0.057
606.50,0.057
607.00,0.057
607.50,0.056
608.00,0.056
608.50,0.056
609.00,0.056
609.50,0.056
610.00,0.055
610.50,0.055
611.00,0.055
611.50,0.055
612.00,0.055
612.50,0.054
613.00,0.054
613.50,0.054
614.00,0.054
614.50,0.054
615.00,0.053
615.50,0.053
616.00,0.053
616.50,0.053
617.00,0.053
617.50,0.053
618.00,0.052
618.50,0.052
619.00,0.052
619.50,0.052
620.00,0.052
620.50,0.051
621.00,0.051
621.50,0.051
622.00,0.051
622.50,0.051
623.00,0.051
623.50,0.050
624.00,0.050
624.50,0.050
625.00,0.050
625.50,0.050
626.00,0.050
626.50,0.049
627.00,0.049
627.50,0.049
628.00,0.049
628.50,0.049
629.00,0.049
629.50,0.049
630.00,0.048
630.50,0.048
631.00,0.048
631.50,0.048
632.00,0.048
632.50,0.048
633.00,0.048
633.50,0.047
634.00,0.047
634.50,0.047
635.00,0.047
635.50,0.047
636.00,0.047
636.50,0.046
637.00,0.046
637.50,0.046
638.00,0.046
638.50,0.046
639.00,0.046
639.50,0.045
640.00,0.045
640.50,0.045
641.00,0.045
641.50,0.045
642.00,0.045
642.50,0.045
643.00,0.044
643.50,0.044
644.00,0.044
644.50,0.044
645.00,0.044
645.50,0.044
646.00,0.044
646.50,0.044
647.00,0.043
647.50,0.043
648.00,0.043
648.50,0.043
649.00,0.043
649.50,0.043
650.00,0.043
650.50,0.043
651.00,0.043
651.50,0.042
652.00,0.042
652.50,0.042
653.00,0.042
653.50,0.042
654.00,0.042
654.50,0.042
655.00,0.042
655.50,0.042
656.00,0.042
656.50,0.041
657.00,0.041
657.50,0.041
658.00,0.041
658.50,0.041
659.00,0.041
659.50,0.041
660.00,0.041
660.50,0.041
661.00,0.041
661.50,0.040
662.00,0.040
662.50,0.040
663.00,0.040
663.50,0.040
664.00,0.040
664.50,0.040
665.00,0.040
665.50,0.040
666.00,0.040
666.50,0.040
667.00,0.039
667.50,0.039
668.00,0.039
668.50,0.039
669.00,0.039
669.50,0.039
670.00,0.039
670.50,0.039
671.00,0.039
671.50,0.039
672.00,0.039
672.50,0.039
673.00,0.039
673.50,0.038
674.00,0.038
674.50,0.038
675.00,0.038
675.50,0.038
676.00,0.038
676.50,0.038
677.00,0.038
677.50,0.038
678.00,0.038
678.50,0.038
679.00,0.038
679.50,0.038
680.00,0.038
680.50,0.037
681.00,0.037
681.50,0.037
682.00,0.037
682.50,0.037
683.00,0.037
683.50,0.037
684.00,0.037
684.50,0.037
685.00,0.037
685.50,0.037
686.00,0.037
686.50,0.037
687.00,0.037
687.50,0.036
688.00,0.036
688.50,0.036
689.00,0.036
689.50,0.036
690.00,0.036
690.50,0.036
691.00,0.036
691.50,0.036
692.00,0.036
692.50,0.036
693.00,0.036
693.50,0.036
694.00,0.036
694.50,0.035
695.00,0.035
695.50,0.035
696.00,0.035
696.50,0.035
697.00,0.035
697.50,0.035
698.00,0.035
698.50,0.035
699.00,0.035
699.50,0.035
700.00,0.035
700.50,0.035
701.00,0.035
701.50,0.035
702.00,0.034
702.50,0.034
703.00,0.034
703.50,0.034
704.00,0.034
704.50,0.034
705.00,0.034
705.50,0.034
706.00,0.034
706.50,0.034
707.00,0.034
707.50,0.034
708.00,0.034
708.50,0.034
709.00,0.033
709.50,0.033
710.00,0.033
710.50,0.033
711.00,0.033
711.50,0.033
712.00,0.033
712.50,0.033
713.00,0.033
713.50,0.033
714.00,0.033
714.50,0.033
715.00,0.033
715.50,0.033
716.00,0.033
716.50,0.032
717.00,0.032
717.50,0.032
718.00,0.032
718.50,0.032
719.00,0.032
719.50,0.032
720.00,0.032
720.50,0.032
721.00,0.032
721.50,0.032
722.00,0.032
722.50,0.032
723.00,0.032
723.50,0.032
724.00,0.032
724.50,0.031
725.00,0.031
725.50,0.031
726.00,0.031
726.50,0.031
727.00,0.031
727.50,0.031
728.00,0.031
728.50,0.031
729.00,0.031
729.50,0.031
730.00,0.031
730.50,0.031
731.00,0.031
731.50,0.030
732.00,0.030
732.50,0.030
733.00,0.030
733.50,0.030
734.00,0.030
734.50,0.030
735.00,0.030
735.50,0.030
736.00,0.030
736.50,0.030
737.00,0.030
737.50,0.030
738.00,0.030
738.50,0.030
739.00,0.030
739.50,0.029
740.00,0.029
740.50,0.029
741.00,0.029
741.50,0.029
742.00,0.029
742.50,0.029
743.00,0.029
743.50,0.029
744.00,0.029
744.50,0.029
745.00,0.029
745.50,0.029
746.00,0.029
746.50,0.029
747.00,0.028
747.50,0.028
748.00,0.028
748.50,0.028
749.00,0.028
749.50,0.028
750.00,0.028
750.50,0.028
751.00,0.028
751.50,0.028
752.00,0.028
752.50,0.028
753.00,0.028
753.50,0.028
754.00,0.028
754.50,0.028
755.00,0.027
755.50,0.027
756.00,0.027
756.50,0.027
757.00,0.027
757.50,0.027
758.00,0.027
758.50,0.027
759.00,0.027
759.50,0.027
760.00,0.027
760.50,0.027
761.00,0.027
761.50,0.027
762.00,0.027
762.50,0.027
763.00,0.027
763.50,0.026
764.00,0.026
764.50,0.026
765.00,0.026
765.50,0.026
766.00,0.026
766.50,0.026
767.00,0.026
767.50,0.026
768.00,0.026
768.50,0.026
769.00,0.026
769.50,0.026
770.00,0.026
770.50,0.026
771.00,0.026
771.50,0.026
772.00,0.026
772.50,0.025
773.00,0.025
773.50,0.025
774.00,0.025
774.50,0.025
775.00,0.025
775.50,0.025
776.00,0.025
776.50,0.025
777.00,0.025
777.50,0.025
778.00,0.025
778.50,0.025
779.00,0.025
779.50,0.025
780.00,0.025
780.50,0.025
781.00,0.025
781.50,0.025
782.00,0.025
782.50,0.025
783.00,0.025
783.50,0.025
784.00,0.025
784.50,0.024
785.00,0.024
785.50,0.024
786.00,0.024
786.50,0.024
787.00,0.024
787.50,0.024
788.00,0.024
788.50,0.024
789.00,0.024
789.50,0.024
790.00,0.024
790.50,0.024
791.00,0.024
791.50,0.024
792.00,0.024
792.50,0.024
793.00,0.024
793.50,0.024
794.00,0.024
794.50,0.024
795.00,0.024
795.50,0.024
796.00,0.024
796.50,0.024
797.00,0.024
797.50,0.024
798.00,0.024
798.50,0.024
799.00,0.024
799.50,0.024
800.00,0.024