File: 1ml_diluted3.txt
'RawData - Storage 161645 - 1ml_diluted3.spc'
'Wavelength nm.','Abs.'
300.00,0.065
300.50,0.063
301.00,0.062
301.50,0.061
302.00,0.060
302.50,0.059
303.00,0.058
303.50,0.057
304.00,0.056
304.50,0.055
305.00,0.054
305.50,0.054
306.00,0.053
306.50,0.051
307.00,0.051
307.50,0.049
308.00,0.048
308.50,0.047
309.00,0.046
309.50,0.045
310.00,0.044
310.50,0.044
311.00,0.043
311.50,0.042
312.00,0.041
312.50,0.041
313.00,0.040
313.50,0.039
314.00,0.039
314.50,0.039
315.00,0.038
315.50,0.037
316.00,0.036
316.50,0.036
317.00,0.036
317.50,0.035
318.00,0.035
318.50,0.034
319.00,0.034
319.50,0.034
320.00,0.034
320.50,0.033
321.00,0.032
321.50,0.032
322.00,0.032
322.50,0.032
323.00,0.032
323.50,0.032
324.00,0.032
324.50,0.032
325.00,0.032
325.50,0.033
326.00,0.033
326.50,0.033
327.00,0.033
327.50,0.034
328.00,0.034
328.50,0.035
329.00,0.035
329.50,0.036
330.00,0.036
330.50,0.037
331.00,0.037
331.50,0.038
332.00,0.039
332.50,0.040
333.00,0.040
333.50,0.041
334.00,0.042
334.50,0.043
335.00,0.044
335.50,0.045
336.00,0.046
336.50,0.048
337.00,0.049
337.50,0.051
338.00,0.052
338.50,0.054
339.00,0.056
339.50,0.058
340.00,0.060
340.50,0.061
341.00,0.064
341.50,0.065
342.00,0.067
342.50,0.069
343.00,0.070
343.50,0.073
344.00,0.075
344.50,0.076
345.00,0.078
345.50,0.079
346.00,0.080
346.50,0.082
347.00,0.084
347.50,0.085
348.00,0.086
348.50,0.088
349.00,0.089
349.50,0.090
350.00,0.091
350.50,0.092
351.00,0.093
351.50,0.094
352.00,0.095
352.50,0.096
353.00,0.097
353.50,0.098
354.00,0.099
354.50,0.100
355.00,0.100
355.50,0.102
356.00,0.102
356.50,0.103
357.00,0.104
357.50,0.105
358.00,0.106
358.50,0.107
359.00,0.108
359.50,0.109
360.00,0.110
360.50,0.111
361.00,0.112
361.50,0.113
362.00,0.114
362.50,0.115
363.00,0.116
363.50,0.117
364.00,0.119
364.50,0.120
365.00,0.121
365.50,0.122
366.00,0.123
366.50,0.124
367.00,0.126
367.50,0.127
368.00,0.127
368.50,0.129
369.00,0.130
369.50,0.131
370.00,0.133
370.50,0.134
371.00,0.135
371.50,0.136
372.00,0.137
372.50,0.139
373.00,0.140
373.50,0.141
374.00,0.142
374.50,0.144
375.00,0.145
375.50,0.146
376.00,0.147
376.50,0.148
377.00,0.150
377.50,0.151
378.00,0.152
378.50,0.153
379.00,0.154
379.50,0.156
380.00,0.157
380.50,0.158
381.00,0.159
381.50,0.160
382.00,0.161
382.50,0.163
383.00,0.164
383.50,0.165
384.00,0.166
384.50,0.167
385.00,0.169
385.50,0.170
386.00,0.171
386.50,0.172
387.00,0.173
387.50,0.175
388.00,0.176
388.50,0.177
389.00,0.179
389.50,0.180
390.00,0.181
390.50,0.183
391.00,0.184
391.50,0.185
392.00,0.187
392.50,0.188
393.00,0.190
393.50,0.191
394.00,0.193
394.50,0.194
395.00,0.196
395.50,0.197
396.00,0.199
396.50,0.200
397.00,0.202
397.50,0.203
398.00,0.205
398.50,0.207
399.00,0.208
399.50,0.210
400.00,0.211
400.50,0.213
401.00,0.215
401.50,0.216
402.00,0.218
402.50,0.220
403.00,0.221
403.50,0.223
404.00,0.225
404.50,0.227
405.00,0.229
405.50,0.230
406.00,0.232
406.50,0.234
407.00,0.236
407.50,0.238
408.00,0.240
408.50,0.242
409.00,0.243
409.50,0.245
410.00,0.247
410.50,0.249
411.00,0.250
411.50,0.252
412.00,0.254
412.50,0.256
413.00,0.257
413.50,0.259
414.00,0.261
414.50,0.262
415.00,0.264
415.50,0.266
416.00,0.267
416.50,0.268
417.00,0.270
417.50,0.272
418.00,0.273
418.50,0.274
419.00,0.276
419.50,0.277
420.00,0.278
420.50,0.279
421.00,0.280
421.50,0.281
422.00,0.282
422.50,0.283
423.00,0.284
423.50,0.285
424.00,0.286
424.50,0.287
425.00,0.287
425.50,0.288
426.00,0.289
426.50,0.289
427.00,0.290
427.50,0.290
428.00,0.291
428.50,0.291
429.00,0.292
429.50,0.292
430.00,0.292
430.50,0.292
431.00,0.293
431.50,0.293
432.00,0.293
432.50,0.293
433.00,0.293
433.50,0.293
434.00,0.293
434.50,0.292
435.00,0.292
435.50,0.292
436.00,0.291
436.50,0.291
437.00,0.291
437.50,0.290
438.00,0.290
438.50,0.289
439.00,0.289
439.50,0.288
440.00,0.288
440.50,0.287
441.00,0.286
441.50,0.285
442.00,0.285
442.50,0.284
443.00,0.283
443.50,0.282
444.00,0.281
444.50,0.280
445.00,0.279
445.50,0.278
446.00,0.277
446.50,0.276
447.00,0.275
447.50,0.273
448.00,0.272
448.50,0.271
449.00,0.270
449.50,0.268
450.00,0.267
450.50,0.266
451.00,0.264
451.50,0.263
452.00,0.262
452.50,0.260
453.00,0.259
453.50,0.257
454.00,0.256
454.50,0.254
455.00,0.253
455.50,0.251
456.00,0.249
456.50,0.248
457.00,0.246
457.50,0.244
458.00,0.243
458.50,0.241
459.00,0.239
459.50,0.237
460.00,0.236
460.50,0.234
461.00,0.232
461.50,0.230
462.00,0.228
462.50,0.227
463.00,0.225
463.50,0.223
464.00,0.221
464.50,0.219
465.00,0.217
465.50,0.216
466.00,0.214
466.50,0.212
467.00,0.210
467.50,0.208
468.00,0.206
468.50,0.205
469.00,0.203
469.50,0.201
470.00,0.199
470.50,0.197
471.00,0.196
471.50,0.194
472.00,0.192
472.50,0.190
473.00,0.189
473.50,0.187
474.00,0.185
474.50,0.183
475.00,0.182
475.50,0.180
476.00,0.178
476.50,0.176
477.00,0.175
477.50,0.173
478.00,0.171
478.50,0.169
479.00,0.168
479.50,0.166
480.00,0.165
480.50,0.163
481.00,0.161
481.50,0.160
482.00,0.158
482.50,0.157
483.00,0.155
483.50,0.153
484.00,0.152
484.50,0.150
485.00,0.149
485.50,0.147
486.00,0.146
486.50,0.144
487.00,0.143
487.50,0.141
488.00,0.140
488.50,0.139
489.00,0.137
489.50,0.136
490.00,0.134
490.50,0.133
491.00,0.132
491.50,0.130
492.00,0.129
492.50,0.128
493.00,0.127
493.50,0.125
494.00,0.124
494.50,0.123
495.00,0.122
495.50,0.120
496.00,0.119
496.50,0.118
497.00,0.117
497.50,0.116
498.00,0.115
498.50,0.114
499.00,0.113
499.50,0.111
500.00,0.110
500.50,0.109
501.00,0.108
501.50,0.107
502.00,0.106
502.50,0.105
503.00,0.104
503.50,0.104
504.00,0.103
504.50,0.102
505.00,0.101
505.50,0.100
506.00,0.099
506.50,0.098
507.00,0.097
507.50,0.096
508.00,0.095
508.50,0.094
509.00,0.094
509.50,0.093
510.00,0.092
510.50,0.091
511.00,0.090
511.50,0.090
512.00,0.089
512.50,0.088
513.00,0.087
513.50,0.087
514.00,0.086
514.50,0.085
515.00,0.084
515.50,0.084
516.00,0.083
516.50,0.082
517.00,0.082
517.50,0.081
518.00,0.080
518.50,0.080
519.00,0.079
519.50,0.078
520.00,0.078
520.50,0.077
521.00,0.077
521.50,0.076
522.00,0.075
522.50,0.075
523.00,0.074
523.50,0.074
524.00,0.073
524.50,0.072
525.00,0.072
525.50,0.071
526.00,0.071
526.50,0.070
527.00,0.070
527.50,0.069
528.00,0.069
528.50,0.068
529.00,0.068
529.50,0.067
530.00,0.067
530.50,0.066
531.00,0.065
531.50,0.065
532.00,0.064
532.50,0.064
533.00,0.064
533.50,0.063
534.00,0.063
534.50,0.062
535.00,0.062
535.50,0.061
536.00,0.061
536.50,0.060
537.00,0.060
537.50,0.059
538.00,0.059
538.50,0.058
539.00,0.058
539.50,0.058
540.00,0.057
540.50,0.057
541.00,0.056
541.50,0.056
542.00,0.056
542.50,0.055
543.00,0.055
543.50,0.054
544.00,0.054
544.50,0.054
545.00,0.053
545.50,0.053
546.00,0.053
546.50,0.052
547.00,0.052
547.50,0.051
548.00,0.051
548.50,0.051
549.00,0.050
549.50,0.050
550.00,0.050
550.50,0.049
551.00,0.049
551.50,0.049
552.00,0.048
552.50,0.048
553.00,0.048
553.50,0.047
554.00,0.047
554.50,0.047
555.00,0.047
555.50,0.046
556.00,0.046
556.50,0.046
557.00,0.045
557.50,0.045
558.00,0.045
558.50,0.045
559.00,0.044
559.50,0.044
560.00,0.044
560.50,0.043
561.00,0.043
561.50,0.043
562.00,0.043
562.50,0.042
563.00,0.042
563.50,0.042
564.00,0.042
564.50,0.041
565.00,0.041
565.50,0.041
566.00,0.041
566.50,0.041
567.00,0.040
567.50,0.040
568.00,0.040
568.50,0.040
569.00,0.039
569.50,0.039
570.00,0.039
570.50,0.039
571.00,0.039
571.50,0.038
572.00,0.038
572.50,0.038
573.00,0.038
573.50,0.038
574.00,0.037
574.50,0.037
575.00,0.037
575.50,0.037
576.00,0.037
576.50,0.037
577.00,0.036
577.50,0.036
578.00,0.036
578.50,0.036
579.00,0.036
579.50,0.036
580.00,0.035
580.50,0.035
581.00,0.035
581.50,0.035
582.00,0.035
582.50,0.035
583.00,0.035
583.50,0.034
584.00,0.034
584.50,0.034
585.00,0.034
585.50,0.034
586.00,0.034
586.50,0.034
587.00,0.033
587.50,0.033
588.00,0.033
588.50,0.033
589.00,0.033
589.50,0.033
590.00,0.033
590.50,0.033
591.00,0.032
591.50,0.032
592.00,0.032
592.50,0.032
593.00,0.032
593.50,0.032
594.00,0.032
594.50,0.032
595.00,0.032
595.50,0.031
596.00,0.031
596.50,0.031
597.00,0.031
597.50,0.031
598.00,0.031
598.50,0.031
599.00,0.031
599.50,0.031
600.00,0.031
600.50,0.030
601.00,0.030
601.50,0.030
602.00,0.030
602.50,0.030
603.00,0.030
603.50,0.030
604.00,0.030
604.50,0.030
605.00,0.030
605.50,0.029
606.00,0.029
606.50,0.029
607.00,0.029
607.50,0.029
608.00,0.029
608.50,0.029
609.00,0.029
609.50,0.029
610.00,0.029
610.50,0.029
611.00,0.029
611.50,0.028
612.00,0.028
612.50,0.028
613.00,0.028
613.50,0.028
614.00,0.028
614.50,0.028
615.00,0.028
615.50,0.028
616.00,0.028
616.50,0.028
617.00,0.028
617.50,0.027
618.00,0.027
618.50,0.027
619.00,0.027
619.50,0.027
620.00,0.027
620.50,0.027
621.00,0.027
621.50,0.027
622.00,0.027
622.50,0.027
623.00,0.027
623.50,0.026
624.00,0.026
624.50,0.026
625.00,0.026
625.50,0.026
626.00,0.026
626.50,0.026
627.00,0.026
627.50,0.026
628.00,0.026
628.50,0.026
629.00,0.026
629.50,0.026
630.00,0.025
630.50,0.025
631.00,0.025
631.50,0.025
632.00,0.025
632.50,0.025
633.00,0.025
633.50,0.025
634.00,0.025
634.50,0.025
635.00,0.025
635.50,0.025
636.00,0.025
636.50,0.024
637.00,0.024
637.50,0.024
638.00,0.024
638.50,0.024
639.00,0.024
639.50,0.024
640.00,0.024
640.50,0.024
641.00,0.024
641.50,0.024
642.00,0.024
642.50,0.023
643.00,0.023
643.50,0.023
644.00,0.023
644.50,0.023
645.00,0.023
645.50,0.023
646.00,0.023
646.50,0.023
647.00,0.023
647.50,0.023
648.00,0.023
648.50,0.023
649.00,0.023
649.50,0.023
650.00,0.023
650.50,0.023
651.00,0.022
651.50,0.022
652.00,0.022
652.50,0.022
653.00,0.022
653.50,0.022
654.00,0.022
654.50,0.022
655.00,0.022
655.50,0.022
656.00,0.022
656.50,0.022
657.00,0.022
657.50,0.022
658.00,0.022
658.50,0.022
659.00,0.022
659.50,0.022
660.00,0.022
660.50,0.022
661.00,0.022
661.50,0.022
662.00,0.022
662.50,0.022
663.00,0.022
663.50,0.021
664.00,0.021
664.50,0.021
665.00,0.021
665.50,0.021
666.00,0.021
666.50,0.021
667.00,0.021
667.50,0.021
668.00,0.021
668.50,0.021
669.00,0.021
669.50,0.021
670.00,0.021
670.50,0.021
671.00,0.021
671.50,0.021
672.00,0.021
672.50,0.021
673.00,0.021
673.50,0.021
674.00,0.021
674.50,0.021
675.00,0.021
675.50,0.021
676.00,0.021
676.50,0.021
677.00,0.021
677.50,0.021
678.00,0.021
678.50,0.021
679.00,0.021
679.50,0.021
680.00,0.021
680.50,0.021
681.00,0.021
681.50,0.021
682.00,0.021
682.50,0.020
683.00,0.020
683.50,0.020
684.00,0.020
684.50,0.020
685.00,0.020
685.50,0.020
686.00,0.020
686.50,0.020
687.00,0.020
687.50,0.020
688.00,0.020
688.50,0.020
689.00,0.020
689.50,0.020
690.00,0.020
690.50,0.020
691.00,0.020
691.50,0.020
692.00,0.020
692.50,0.020
693.00,0.020
693.50,0.020
694.00,0.020
694.50,0.020
695.00,0.020
695.50,0.020
696.00,0.020
696.50,0.020
697.00,0.020
697.50,0.020
698.00,0.020
698.50,0.020
699.00,0.020
699.50,0.020
700.00,0.020
700.50,0.020
701.00,0.020
701.50,0.019
702.00,0.019
702.50,0.019
703.00,0.019
703.50,0.019
704.00,0.019
704.50,0.019
705.00,0.019
705.50,0.019
706.00,0.019
706.50,0.019
707.00,0.019
707.50,0.019
708.00,0.019
708.50,0.019
709.00,0.019
709.50,0.019
710.00,0.019
710.50,0.019
711.00,0.019
711.50,0.019
712.00,0.019
712.50,0.019
713.00,0.019
713.50,0.019
714.00,0.019
714.50,0.019
715.00,0.019
715.50,0.018
716.00,0.018
716.50,0.018
717.00,0.018
717.50,0.018
718.00,0.018
718.50,0.018
719.00,0.018
719.50,0.018
720.00,0.018
720.50,0.018
721.00,0.018
721.50,0.018
722.00,0.018
722.50,0.018
723.00,0.018
723.50,0.018
724.00,0.018
724.50,0.018
725.00,0.018
725.50,0.018
726.00,0.018
726.50,0.018
727.00,0.018
727.50,0.017
728.00,0.017
728.50,0.017
729.00,0.017
729.50,0.017
730.00,0.017
730.50,0.017
731.00,0.017
731.50,0.017
732.00,0.017
732.50,0.017
733.00,0.017
733.50,0.017
734.00,0.017
734.50,0.017
735.00,0.017
735.50,0.017
736.00,0.017
736.50,0.017
737.00,0.017
737.50,0.017
738.00,0.017
738.50,0.017
739.00,0.017
739.50,0.017
740.00,0.017
740.50,0.017
741.00,0.017
741.50,0.017
742.00,0.016
742.50,0.016
743.00,0.016
743.50,0.016
744.00,0.016
744.50,0.016
745.00,0.016
745.50,0.016
746.00,0.016
746.50,0.016
747.00,0.016
747.50,0.016
748.00,0.016
748.50,0.016
749.00,0.016
749.50,0.016
750.00,0.016
750.50,0.016
751.00,0.016
751.50,0.016
752.00,0.016
752.50,0.016
753.00,0.016
753.50,0.016
754.00,0.016
754.50,0.016
755.00,0.016
755.50,0.015
756.00,0.015
756.50,0.015
757.00,0.015
757.50,0.015
758.00,0.015
758.50,0.015
759.00,0.015
759.50,0.015
760.00,0.015
760.50,0.015
761.00,0.015
761.50,0.015
762.00,0.015
762.50,0.015
763.00,0.015
763.50,0.015
764.00,0.015
764.50,0.015
765.00,0.015
765.50,0.015
766.00,0.015
766.50,0.015
767.00,0.015
767.50,0.015
768.00,0.015
768.50,0.015
769.00,0.015
769.50,0.015
770.00,0.014
770.50,0.014
771.00,0.014
771.50,0.014
772.00,0.014
772.50,0.014
773.00,0.014
773.50,0.014
774.00,0.014
774.50,0.014
775.00,0.014
775.50,0.014
776.00,0.014
776.50,0.014
777.00,0.014
777.50,0.014
778.00,0.014
778.50,0.014
779.00,0.014
779.50,0.014
780.00,0.014
780.50,0.014
781.00,0.014
781.50,0.014
782.00,0.014
782.50,0.014
783.00,0.014
783.50,0.014
784.00,0.014
784.50,0.014
785.00,0.014
785.50,0.014
786.00,0.014
786.50,0.014
787.00,0.014
787.50,0.014
788.00,0.014
788.50,0.013
789.00,0.013
789.50,0.013
790.00,0.013
790.50,0.013
791.00,0.013
791.50,0.013
792.00,0.013
792.50,0.013
793.00,0.013
793.50,0.013
794.00,0.013
794.50,0.013
795.00,0.013
795.50,0.013
796.00,0.013
796.50,0.013
797.00,0.013
797.50,0.013
798.00,0.013
798.50,0.013
799.00,0.013
799.50,0.013
800.00,0.013