File: 2ml_diluted2.txt
'RawData - Storage 160111 - 2ml_diluted2.spc'
'Wavelength nm.','Abs.'
300.00,0.517
300.50,0.508
301.00,0.498
301.50,0.488
302.00,0.478
302.50,0.468
303.00,0.458
303.50,0.447
304.00,0.437
304.50,0.428
305.00,0.418
305.50,0.410
306.00,0.401
306.50,0.391
307.00,0.382
307.50,0.372
308.00,0.363
308.50,0.355
309.00,0.347
309.50,0.339
310.00,0.331
310.50,0.323
311.00,0.316
311.50,0.309
312.00,0.302
312.50,0.296
313.00,0.289
313.50,0.284
314.00,0.278
314.50,0.273
315.00,0.267
315.50,0.263
316.00,0.258
316.50,0.254
317.00,0.249
317.50,0.246
318.00,0.243
318.50,0.240
319.00,0.237
319.50,0.234
320.00,0.232
320.50,0.231
321.00,0.229
321.50,0.228
322.00,0.227
322.50,0.226
323.00,0.226
323.50,0.226
324.00,0.227
324.50,0.227
325.00,0.229
325.50,0.230
326.00,0.232
326.50,0.235
327.00,0.237
327.50,0.240
328.00,0.243
328.50,0.247
329.00,0.251
329.50,0.256
330.00,0.262
330.50,0.269
331.00,0.275
331.50,0.282
332.00,0.290
332.50,0.299
333.00,0.308
333.50,0.318
334.00,0.329
334.50,0.341
335.00,0.353
335.50,0.366
336.00,0.379
336.50,0.393
337.00,0.409
337.50,0.425
338.00,0.443
338.50,0.460
339.00,0.476
339.50,0.495
340.00,0.512
340.50,0.531
341.00,0.551
341.50,0.570
342.00,0.590
342.50,0.609
343.00,0.627
343.50,0.645
344.00,0.664
344.50,0.683
345.00,0.701
345.50,0.719
346.00,0.736
346.50,0.754
347.00,0.768
347.50,0.785
348.00,0.802
348.50,0.816
349.00,0.830
349.50,0.844
350.00,0.855
350.50,0.870
351.00,0.884
351.50,0.895
352.00,0.908
352.50,0.921
353.00,0.932
353.50,0.943
354.00,0.956
354.50,0.966
355.00,0.978
355.50,0.990
356.00,1.000
356.50,1.012
357.00,1.023
357.50,1.036
358.00,1.047
358.50,1.061
359.00,1.071
359.50,1.083
360.00,1.097
360.50,1.113
361.00,1.122
361.50,1.139
362.00,1.148
362.50,1.164
363.00,1.175
363.50,1.189
364.00,1.204
364.50,1.221
365.00,1.232
365.50,1.246
366.00,1.256
366.50,1.274
367.00,1.291
367.50,1.306
368.00,1.319
368.50,1.340
369.00,1.354
369.50,1.368
370.00,1.383
370.50,1.396
371.00,1.411
371.50,1.427
372.00,1.439
372.50,1.458
373.00,1.474
373.50,1.488
374.00,1.505
374.50,1.515
375.00,1.536
375.50,1.546
376.00,1.560
376.50,1.575
377.00,1.592
377.50,1.602
378.00,1.617
378.50,1.633
379.00,1.639
379.50,1.656
380.00,1.674
380.50,1.685
381.00,1.699
381.50,1.718
382.00,1.732
382.50,1.738
383.00,1.748
383.50,1.768
384.00,1.785
384.50,1.793
385.00,1.810
385.50,1.823
386.00,1.844
386.50,1.855
387.00,1.866
387.50,1.883
388.00,1.897
388.50,1.910
389.00,1.925
389.50,1.937
390.00,1.966
390.50,1.980
391.00,1.989
391.50,2.006
392.00,2.017
392.50,2.037
393.00,2.053
393.50,2.062
394.00,2.082
394.50,2.113
395.00,2.126
395.50,2.141
396.00,2.160
396.50,2.176
397.00,2.186
397.50,2.201
398.00,2.214
398.50,2.244
399.00,2.262
399.50,2.289
400.00,2.301
400.50,2.314
401.00,2.329
401.50,2.348
402.00,2.368
402.50,2.377
403.00,2.407
403.50,2.420
404.00,2.433
404.50,2.475
405.00,2.489
405.50,2.509
406.00,2.512
406.50,2.512
407.00,2.540
407.50,2.571
408.00,2.585
408.50,2.623
409.00,2.614
409.50,2.642
410.00,2.640
410.50,2.643
411.00,2.681
411.50,2.713
412.00,2.712
412.50,2.719
413.00,2.740
413.50,2.792
414.00,2.768
414.50,2.771
415.00,2.810
415.50,2.837
416.00,2.814
416.50,2.818
417.00,2.815
417.50,2.837
418.00,2.831
418.50,2.851
419.00,2.865
419.50,2.868
420.00,2.854
420.50,2.881
421.00,2.893
421.50,2.915
422.00,2.906
422.50,2.911
423.00,2.896
423.50,2.899
424.00,2.912
424.50,2.914
425.00,2.924
425.50,2.904
426.00,2.910
426.50,2.941
427.00,2.944
427.50,2.910
428.00,2.903
428.50,2.901
429.00,2.925
429.50,2.903
430.00,2.883
430.50,2.891
431.00,2.891
431.50,2.893
432.00,2.902
432.50,2.874
433.00,2.886
433.50,2.882
434.00,2.857
434.50,2.854
435.00,2.844
435.50,2.833
436.00,2.833
436.50,2.826
437.00,2.803
437.50,2.812
438.00,2.797
438.50,2.757
439.00,2.752
439.50,2.740
440.00,2.726
440.50,2.710
441.00,2.689
441.50,2.678
442.00,2.669
442.50,2.647
443.00,2.630
443.50,2.612
444.00,2.608
444.50,2.587
445.00,2.568
445.50,2.555
446.00,2.527
446.50,2.518
447.00,2.497
447.50,2.474
448.00,2.462
448.50,2.435
449.00,2.417
449.50,2.390
450.00,2.373
450.50,2.359
451.00,2.337
451.50,2.318
452.00,2.299
452.50,2.279
453.00,2.254
453.50,2.233
454.00,2.213
454.50,2.189
455.00,2.168
455.50,2.143
456.00,2.125
456.50,2.104
457.00,2.080
457.50,2.057
458.00,2.036
458.50,2.014
459.00,1.991
459.50,1.968
460.00,1.948
460.50,1.928
461.00,1.907
461.50,1.885
462.00,1.865
462.50,1.844
463.00,1.823
463.50,1.801
464.00,1.780
464.50,1.760
465.00,1.739
465.50,1.720
466.00,1.700
466.50,1.679
467.00,1.659
467.50,1.640
468.00,1.622
468.50,1.602
469.00,1.584
469.50,1.565
470.00,1.545
470.50,1.528
471.00,1.511
471.50,1.493
472.00,1.476
472.50,1.458
473.00,1.440
473.50,1.422
474.00,1.405
474.50,1.389
475.00,1.373
475.50,1.356
476.00,1.339
476.50,1.323
477.00,1.308
477.50,1.292
478.00,1.277
478.50,1.262
479.00,1.247
479.50,1.233
480.00,1.218
480.50,1.203
481.00,1.189
481.50,1.176
482.00,1.164
482.50,1.150
483.00,1.136
483.50,1.123
484.00,1.110
484.50,1.097
485.00,1.084
485.50,1.071
486.00,1.058
486.50,1.046
487.00,1.034
487.50,1.022
488.00,1.010
488.50,0.998
489.00,0.987
489.50,0.976
490.00,0.965
490.50,0.954
491.00,0.944
491.50,0.933
492.00,0.923
492.50,0.913
493.00,0.903
493.50,0.893
494.00,0.883
494.50,0.874
495.00,0.864
495.50,0.854
496.00,0.845
496.50,0.836
497.00,0.826
497.50,0.817
498.00,0.809
498.50,0.801
499.00,0.792
499.50,0.783
500.00,0.775
500.50,0.767
501.00,0.759
501.50,0.751
502.00,0.744
502.50,0.736
503.00,0.728
503.50,0.720
504.00,0.713
504.50,0.705
505.00,0.698
505.50,0.691
506.00,0.684
506.50,0.676
507.00,0.670
507.50,0.663
508.00,0.656
508.50,0.648
509.00,0.642
509.50,0.636
510.00,0.629
510.50,0.623
511.00,0.617
511.50,0.611
512.00,0.604
512.50,0.598
513.00,0.592
513.50,0.587
514.00,0.581
514.50,0.575
515.00,0.569
515.50,0.563
516.00,0.558
516.50,0.553
517.00,0.547
517.50,0.542
518.00,0.537
518.50,0.532
519.00,0.526
519.50,0.521
520.00,0.516
520.50,0.512
521.00,0.507
521.50,0.502
522.00,0.497
522.50,0.493
523.00,0.488
523.50,0.484
524.00,0.479
524.50,0.475
525.00,0.471
525.50,0.466
526.00,0.462
526.50,0.458
527.00,0.454
527.50,0.450
528.00,0.446
528.50,0.442
529.00,0.438
529.50,0.435
530.00,0.431
530.50,0.427
531.00,0.424
531.50,0.420
532.00,0.417
532.50,0.413
533.00,0.410
533.50,0.406
534.00,0.403
534.50,0.399
535.00,0.396
535.50,0.393
536.00,0.390
536.50,0.386
537.00,0.383
537.50,0.380
538.00,0.377
538.50,0.374
539.00,0.371
539.50,0.368
540.00,0.366
540.50,0.363
541.00,0.360
541.50,0.357
542.00,0.355
542.50,0.352
543.00,0.349
543.50,0.347
544.00,0.344
544.50,0.342
545.00,0.339
545.50,0.337
546.00,0.334
546.50,0.332
547.00,0.329
547.50,0.327
548.00,0.325
548.50,0.323
549.00,0.320
549.50,0.318
550.00,0.316
550.50,0.314
551.00,0.312
551.50,0.310
552.00,0.307
552.50,0.305
553.00,0.303
553.50,0.301
554.00,0.299
554.50,0.297
555.00,0.295
555.50,0.294
556.00,0.292
556.50,0.290
557.00,0.288
557.50,0.286
558.00,0.284
558.50,0.282
559.00,0.281
559.50,0.279
560.00,0.277
560.50,0.275
561.00,0.274
561.50,0.272
562.00,0.270
562.50,0.269
563.00,0.267
563.50,0.265
564.00,0.264
564.50,0.262
565.00,0.261
565.50,0.259
566.00,0.258
566.50,0.256
567.00,0.255
567.50,0.253
568.00,0.252
568.50,0.250
569.00,0.249
569.50,0.248
570.00,0.246
570.50,0.245
571.00,0.243
571.50,0.242
572.00,0.241
572.50,0.239
573.00,0.238
573.50,0.237
574.00,0.236
574.50,0.234
575.00,0.233
575.50,0.232
576.00,0.231
576.50,0.229
577.00,0.228
577.50,0.227
578.00,0.226
578.50,0.225
579.00,0.224
579.50,0.222
580.00,0.221
580.50,0.220
581.00,0.219
581.50,0.218
582.00,0.217
582.50,0.216
583.00,0.215
583.50,0.214
584.00,0.213
584.50,0.212
585.00,0.211
585.50,0.210
586.00,0.209
586.50,0.208
587.00,0.207
587.50,0.206
588.00,0.205
588.50,0.204
589.00,0.203
589.50,0.202
590.00,0.201
590.50,0.200
591.00,0.199
591.50,0.198
592.00,0.197
592.50,0.196
593.00,0.196
593.50,0.195
594.00,0.194
594.50,0.193
595.00,0.192
595.50,0.191
596.00,0.190
596.50,0.190
597.00,0.189
597.50,0.188
598.00,0.187
598.50,0.187
599.00,0.186
599.50,0.185
600.00,0.184
600.50,0.183
601.00,0.183
601.50,0.182
602.00,0.181
602.50,0.180
603.00,0.180
603.50,0.179
604.00,0.178
604.50,0.177
605.00,0.177
605.50,0.176
606.00,0.175
606.50,0.175
607.00,0.174
607.50,0.173
608.00,0.173
608.50,0.172
609.00,0.171
609.50,0.171
610.00,0.170
610.50,0.169
611.00,0.169
611.50,0.168
612.00,0.167
612.50,0.167
613.00,0.166
613.50,0.166
614.00,0.165
614.50,0.164
615.00,0.164
615.50,0.163
616.00,0.162
616.50,0.162
617.00,0.161
617.50,0.161
618.00,0.160
618.50,0.159
619.00,0.159
619.50,0.158
620.00,0.158
620.50,0.157
621.00,0.157
621.50,0.156
622.00,0.156
622.50,0.155
623.00,0.154
623.50,0.154
624.00,0.153
624.50,0.153
625.00,0.152
625.50,0.152
626.00,0.151
626.50,0.151
627.00,0.150
627.50,0.150
628.00,0.149
628.50,0.149
629.00,0.148
629.50,0.148
630.00,0.147
630.50,0.147
631.00,0.146
631.50,0.146
632.00,0.145
632.50,0.145
633.00,0.144
633.50,0.144
634.00,0.143
634.50,0.143
635.00,0.142
635.50,0.142
636.00,0.142
636.50,0.141
637.00,0.141
637.50,0.140
638.00,0.140
638.50,0.139
639.00,0.139
639.50,0.138
640.00,0.138
640.50,0.137
641.00,0.137
641.50,0.137
642.00,0.136
642.50,0.136
643.00,0.135
643.50,0.135
644.00,0.135
644.50,0.134
645.00,0.134
645.50,0.133
646.00,0.133
646.50,0.133
647.00,0.132
647.50,0.132
648.00,0.131
648.50,0.131
649.00,0.131
649.50,0.130
650.00,0.130
650.50,0.130
651.00,0.129
651.50,0.129
652.00,0.129
652.50,0.128
653.00,0.128
653.50,0.127
654.00,0.127
654.50,0.127
655.00,0.126
655.50,0.126
656.00,0.126
656.50,0.125
657.00,0.125
657.50,0.125
658.00,0.124
658.50,0.124
659.00,0.124
659.50,0.123
660.00,0.123
660.50,0.122
661.00,0.122
661.50,0.122
662.00,0.121
662.50,0.121
663.00,0.121
663.50,0.121
664.00,0.120
664.50,0.120
665.00,0.120
665.50,0.119
666.00,0.119
666.50,0.119
667.00,0.118
667.50,0.118
668.00,0.118
668.50,0.117
669.00,0.117
669.50,0.117
670.00,0.116
670.50,0.116
671.00,0.116
671.50,0.116
672.00,0.115
672.50,0.115
673.00,0.115
673.50,0.114
674.00,0.114
674.50,0.114
675.00,0.113
675.50,0.113
676.00,0.113
676.50,0.113
677.00,0.112
677.50,0.112
678.00,0.112
678.50,0.111
679.00,0.111
679.50,0.111
680.00,0.111
680.50,0.110
681.00,0.110
681.50,0.110
682.00,0.109
682.50,0.109
683.00,0.109
683.50,0.109
684.00,0.108
684.50,0.108
685.00,0.108
685.50,0.107
686.00,0.107
686.50,0.107
687.00,0.107
687.50,0.106
688.00,0.106
688.50,0.106
689.00,0.106
689.50,0.105
690.00,0.105
690.50,0.105
691.00,0.105
691.50,0.104
692.00,0.104
692.50,0.104
693.00,0.104
693.50,0.103
694.00,0.103
694.50,0.103
695.00,0.103
695.50,0.102
696.00,0.102
696.50,0.102
697.00,0.102
697.50,0.101
698.00,0.101
698.50,0.101
699.00,0.101
699.50,0.100
700.00,0.100
700.50,0.100
701.00,0.100
701.50,0.100
702.00,0.099
702.50,0.099
703.00,0.099
703.50,0.099
704.00,0.098
704.50,0.098
705.00,0.098
705.50,0.098
706.00,0.097
706.50,0.097
707.00,0.097
707.50,0.097
708.00,0.097
708.50,0.096
709.00,0.096
709.50,0.096
710.00,0.096
710.50,0.095
711.00,0.095
711.50,0.095
712.00,0.095
712.50,0.095
713.00,0.094
713.50,0.094
714.00,0.094
714.50,0.094
715.00,0.094
715.50,0.093
716.00,0.093
716.50,0.093
717.00,0.093
717.50,0.092
718.00,0.092
718.50,0.092
719.00,0.092
719.50,0.092
720.00,0.092
720.50,0.091
721.00,0.091
721.50,0.091
722.00,0.091
722.50,0.091
723.00,0.090
723.50,0.090
724.00,0.090
724.50,0.090
725.00,0.089
725.50,0.089
726.00,0.089
726.50,0.089
727.00,0.089
727.50,0.088
728.00,0.088
728.50,0.088
729.00,0.088
729.50,0.088
730.00,0.088
730.50,0.087
731.00,0.087
731.50,0.087
732.00,0.087
732.50,0.087
733.00,0.086
733.50,0.086
734.00,0.086
734.50,0.086
735.00,0.086
735.50,0.085
736.00,0.085
736.50,0.085
737.00,0.085
737.50,0.085
738.00,0.084
738.50,0.084
739.00,0.084
739.50,0.084
740.00,0.084
740.50,0.084
741.00,0.083
741.50,0.083
742.00,0.083
742.50,0.083
743.00,0.083
743.50,0.083
744.00,0.082
744.50,0.082
745.00,0.082
745.50,0.082
746.00,0.082
746.50,0.081
747.00,0.081
747.50,0.081
748.00,0.081
748.50,0.081
749.00,0.080
749.50,0.080
750.00,0.080
750.50,0.080
751.00,0.080
751.50,0.080
752.00,0.079
752.50,0.079
753.00,0.079
753.50,0.079
754.00,0.079
754.50,0.078
755.00,0.078
755.50,0.078
756.00,0.078
756.50,0.078
757.00,0.078
757.50,0.077
758.00,0.077
758.50,0.077
759.00,0.077
759.50,0.077
760.00,0.077
760.50,0.077
761.00,0.076
761.50,0.076
762.00,0.076
762.50,0.076
763.00,0.076
763.50,0.076
764.00,0.076
764.50,0.075
765.00,0.075
765.50,0.075
766.00,0.075
766.50,0.075
767.00,0.075
767.50,0.074
768.00,0.074
768.50,0.074
769.00,0.074
769.50,0.074
770.00,0.074
770.50,0.074
771.00,0.074
771.50,0.073
772.00,0.073
772.50,0.073
773.00,0.073
773.50,0.073
774.00,0.073
774.50,0.072
775.00,0.072
775.50,0.072
776.00,0.072
776.50,0.072
777.00,0.072
777.50,0.072
778.00,0.071
778.50,0.071
779.00,0.071
779.50,0.071
780.00,0.071
780.50,0.071
781.00,0.071
781.50,0.070
782.00,0.070
782.50,0.070
783.00,0.070
783.50,0.070
784.00,0.070
784.50,0.070
785.00,0.069
785.50,0.069
786.00,0.069
786.50,0.069
787.00,0.069
787.50,0.069
788.00,0.069
788.50,0.069
789.00,0.068
789.50,0.068
790.00,0.068
790.50,0.068
791.00,0.068
791.50,0.068
792.00,0.068
792.50,0.067
793.00,0.067
793.50,0.067
794.00,0.067
794.50,0.067
795.00,0.067
795.50,0.067
796.00,0.067
796.50,0.066
797.00,0.066
797.50,0.066
798.00,0.066
798.50,0.066
799.00,0.066
799.50,0.066
800.00,0.066