File: 2ml_diluted3.txt
'RawData - Storage 160641 - 2ml_diluted3.spc'
'Wavelength nm.','Abs.'
300.00,0.181
300.50,0.178
301.00,0.174
301.50,0.171
302.00,0.167
302.50,0.164
303.00,0.160
303.50,0.157
304.00,0.153
304.50,0.150
305.00,0.147
305.50,0.144
306.00,0.141
306.50,0.138
307.00,0.134
307.50,0.131
308.00,0.128
308.50,0.125
309.00,0.122
309.50,0.119
310.00,0.116
310.50,0.113
311.00,0.111
311.50,0.108
312.00,0.106
312.50,0.104
313.00,0.102
313.50,0.100
314.00,0.098
314.50,0.096
315.00,0.095
315.50,0.093
316.00,0.091
316.50,0.090
317.00,0.088
317.50,0.087
318.00,0.086
318.50,0.085
319.00,0.084
319.50,0.083
320.00,0.082
320.50,0.082
321.00,0.081
321.50,0.080
322.00,0.080
322.50,0.080
323.00,0.080
323.50,0.080
324.00,0.080
324.50,0.080
325.00,0.081
325.50,0.082
326.00,0.083
326.50,0.084
327.00,0.085
327.50,0.086
328.00,0.087
328.50,0.088
329.00,0.090
329.50,0.092
330.00,0.094
330.50,0.096
331.00,0.099
331.50,0.102
332.00,0.104
332.50,0.107
333.00,0.110
333.50,0.114
334.00,0.118
334.50,0.122
335.00,0.126
335.50,0.131
336.00,0.135
336.50,0.141
337.00,0.146
337.50,0.152
338.00,0.158
338.50,0.164
339.00,0.170
339.50,0.177
340.00,0.184
340.50,0.190
341.00,0.198
341.50,0.204
342.00,0.211
342.50,0.218
343.00,0.224
343.50,0.232
344.00,0.238
344.50,0.245
345.00,0.252
345.50,0.259
346.00,0.264
346.50,0.270
347.00,0.276
347.50,0.281
348.00,0.287
348.50,0.293
349.00,0.298
349.50,0.304
350.00,0.308
350.50,0.312
351.00,0.317
351.50,0.322
352.00,0.326
352.50,0.330
353.00,0.335
353.50,0.339
354.00,0.343
354.50,0.347
355.00,0.351
355.50,0.355
356.00,0.359
356.50,0.363
357.00,0.368
357.50,0.373
358.00,0.377
358.50,0.381
359.00,0.386
359.50,0.390
360.00,0.394
360.50,0.400
361.00,0.405
361.50,0.409
362.00,0.413
362.50,0.419
363.00,0.424
363.50,0.428
364.00,0.433
364.50,0.438
365.00,0.443
365.50,0.449
366.00,0.454
366.50,0.459
367.00,0.465
367.50,0.471
368.00,0.476
368.50,0.481
369.00,0.486
369.50,0.492
370.00,0.497
370.50,0.503
371.00,0.509
371.50,0.514
372.00,0.519
372.50,0.524
373.00,0.530
373.50,0.535
374.00,0.541
374.50,0.546
375.00,0.551
375.50,0.556
376.00,0.561
376.50,0.566
377.00,0.572
377.50,0.577
378.00,0.582
378.50,0.587
379.00,0.592
379.50,0.597
380.00,0.602
380.50,0.607
381.00,0.611
381.50,0.617
382.00,0.621
382.50,0.626
383.00,0.632
383.50,0.637
384.00,0.642
384.50,0.647
385.00,0.652
385.50,0.658
386.00,0.663
386.50,0.668
387.00,0.673
387.50,0.679
388.00,0.684
388.50,0.690
389.00,0.695
389.50,0.700
390.00,0.706
390.50,0.712
391.00,0.718
391.50,0.724
392.00,0.730
392.50,0.735
393.00,0.741
393.50,0.747
394.00,0.753
394.50,0.759
395.00,0.766
395.50,0.772
396.00,0.778
396.50,0.784
397.00,0.790
397.50,0.797
398.00,0.803
398.50,0.809
399.00,0.815
399.50,0.821
400.00,0.827
400.50,0.835
401.00,0.841
401.50,0.847
402.00,0.853
402.50,0.860
403.00,0.866
403.50,0.873
404.00,0.880
404.50,0.886
405.00,0.892
405.50,0.898
406.00,0.904
406.50,0.910
407.00,0.917
407.50,0.924
408.00,0.930
408.50,0.936
409.00,0.942
409.50,0.947
410.00,0.954
410.50,0.959
411.00,0.965
411.50,0.971
412.00,0.977
412.50,0.982
413.00,0.987
413.50,0.992
414.00,0.997
414.50,1.002
415.00,1.007
415.50,1.011
416.00,1.016
416.50,1.020
417.00,1.024
417.50,1.028
418.00,1.031
418.50,1.035
419.00,1.038
419.50,1.041
420.00,1.044
420.50,1.046
421.00,1.049
421.50,1.051
422.00,1.053
422.50,1.055
423.00,1.057
423.50,1.058
424.00,1.059
424.50,1.060
425.00,1.061
425.50,1.061
426.00,1.061
426.50,1.061
427.00,1.061
427.50,1.061
428.00,1.060
428.50,1.059
429.00,1.058
429.50,1.057
430.00,1.055
430.50,1.054
431.00,1.052
431.50,1.050
432.00,1.047
432.50,1.045
433.00,1.043
433.50,1.040
434.00,1.037
434.50,1.033
435.00,1.030
435.50,1.026
436.00,1.023
436.50,1.019
437.00,1.014
437.50,1.010
438.00,1.006
438.50,1.001
439.00,0.996
439.50,0.991
440.00,0.986
440.50,0.981
441.00,0.975
441.50,0.970
442.00,0.964
442.50,0.958
443.00,0.953
443.50,0.947
444.00,0.940
444.50,0.934
445.00,0.927
445.50,0.920
446.00,0.914
446.50,0.907
447.00,0.900
447.50,0.893
448.00,0.887
448.50,0.880
449.00,0.873
449.50,0.865
450.00,0.858
450.50,0.851
451.00,0.843
451.50,0.836
452.00,0.829
452.50,0.821
453.00,0.813
453.50,0.805
454.00,0.798
454.50,0.790
455.00,0.782
455.50,0.775
456.00,0.766
456.50,0.759
457.00,0.751
457.50,0.743
458.00,0.735
458.50,0.727
459.00,0.719
459.50,0.711
460.00,0.703
460.50,0.696
461.00,0.688
461.50,0.681
462.00,0.673
462.50,0.666
463.00,0.658
463.50,0.650
464.00,0.643
464.50,0.635
465.00,0.628
465.50,0.621
466.00,0.614
466.50,0.606
467.00,0.599
467.50,0.592
468.00,0.586
468.50,0.579
469.00,0.572
469.50,0.565
470.00,0.558
470.50,0.552
471.00,0.546
471.50,0.539
472.00,0.533
472.50,0.527
473.00,0.520
473.50,0.514
474.00,0.507
474.50,0.501
475.00,0.496
475.50,0.490
476.00,0.484
476.50,0.478
477.00,0.473
477.50,0.467
478.00,0.461
478.50,0.456
479.00,0.451
479.50,0.445
480.00,0.440
480.50,0.435
481.00,0.430
481.50,0.425
482.00,0.420
482.50,0.415
483.00,0.410
483.50,0.406
484.00,0.401
484.50,0.396
485.00,0.392
485.50,0.387
486.00,0.382
486.50,0.378
487.00,0.373
487.50,0.369
488.00,0.365
488.50,0.361
489.00,0.357
489.50,0.353
490.00,0.349
490.50,0.345
491.00,0.341
491.50,0.337
492.00,0.334
492.50,0.330
493.00,0.326
493.50,0.323
494.00,0.319
494.50,0.316
495.00,0.312
495.50,0.309
496.00,0.306
496.50,0.302
497.00,0.299
497.50,0.296
498.00,0.293
498.50,0.290
499.00,0.287
499.50,0.284
500.00,0.281
500.50,0.278
501.00,0.275
501.50,0.272
502.00,0.270
502.50,0.267
503.00,0.264
503.50,0.261
504.00,0.259
504.50,0.256
505.00,0.253
505.50,0.251
506.00,0.248
506.50,0.246
507.00,0.243
507.50,0.241
508.00,0.239
508.50,0.236
509.00,0.234
509.50,0.232
510.00,0.229
510.50,0.227
511.00,0.225
511.50,0.223
512.00,0.220
512.50,0.218
513.00,0.216
513.50,0.214
514.00,0.212
514.50,0.210
515.00,0.208
515.50,0.206
516.00,0.204
516.50,0.202
517.00,0.200
517.50,0.199
518.00,0.197
518.50,0.195
519.00,0.193
519.50,0.192
520.00,0.190
520.50,0.188
521.00,0.186
521.50,0.185
522.00,0.183
522.50,0.181
523.00,0.180
523.50,0.178
524.00,0.177
524.50,0.175
525.00,0.174
525.50,0.172
526.00,0.171
526.50,0.169
527.00,0.168
527.50,0.167
528.00,0.165
528.50,0.164
529.00,0.162
529.50,0.161
530.00,0.160
530.50,0.158
531.00,0.157
531.50,0.156
532.00,0.155
532.50,0.153
533.00,0.152
533.50,0.151
534.00,0.150
534.50,0.148
535.00,0.147
535.50,0.146
536.00,0.145
536.50,0.144
537.00,0.143
537.50,0.142
538.00,0.141
538.50,0.139
539.00,0.138
539.50,0.137
540.00,0.136
540.50,0.135
541.00,0.134
541.50,0.133
542.00,0.132
542.50,0.132
543.00,0.131
543.50,0.130
544.00,0.129
544.50,0.128
545.00,0.127
545.50,0.126
546.00,0.125
546.50,0.124
547.00,0.123
547.50,0.122
548.00,0.122
548.50,0.121
549.00,0.120
549.50,0.119
550.00,0.118
550.50,0.118
551.00,0.117
551.50,0.116
552.00,0.115
552.50,0.115
553.00,0.114
553.50,0.113
554.00,0.112
554.50,0.112
555.00,0.111
555.50,0.110
556.00,0.110
556.50,0.109
557.00,0.108
557.50,0.107
558.00,0.107
558.50,0.106
559.00,0.106
559.50,0.105
560.00,0.104
560.50,0.104
561.00,0.103
561.50,0.102
562.00,0.102
562.50,0.101
563.00,0.101
563.50,0.100
564.00,0.099
564.50,0.099
565.00,0.098
565.50,0.098
566.00,0.097
566.50,0.097
567.00,0.096
567.50,0.095
568.00,0.095
568.50,0.094
569.00,0.094
569.50,0.093
570.00,0.093
570.50,0.092
571.00,0.092
571.50,0.091
572.00,0.091
572.50,0.090
573.00,0.090
573.50,0.089
574.00,0.089
574.50,0.089
575.00,0.088
575.50,0.088
576.00,0.087
576.50,0.087
577.00,0.086
577.50,0.086
578.00,0.085
578.50,0.085
579.00,0.085
579.50,0.084
580.00,0.084
580.50,0.083
581.00,0.083
581.50,0.083
582.00,0.082
582.50,0.082
583.00,0.082
583.50,0.081
584.00,0.081
584.50,0.080
585.00,0.080
585.50,0.080
586.00,0.079
586.50,0.079
587.00,0.079
587.50,0.078
588.00,0.078
588.50,0.078
589.00,0.077
589.50,0.077
590.00,0.077
590.50,0.076
591.00,0.076
591.50,0.076
592.00,0.075
592.50,0.075
593.00,0.075
593.50,0.074
594.00,0.074
594.50,0.074
595.00,0.073
595.50,0.073
596.00,0.073
596.50,0.073
597.00,0.072
597.50,0.072
598.00,0.072
598.50,0.071
599.00,0.071
599.50,0.071
600.00,0.071
600.50,0.070
601.00,0.070
601.50,0.070
602.00,0.070
602.50,0.069
603.00,0.069
603.50,0.069
604.00,0.069
604.50,0.068
605.00,0.068
605.50,0.068
606.00,0.068
606.50,0.067
607.00,0.067
607.50,0.067
608.00,0.067
608.50,0.066
609.00,0.066
609.50,0.066
610.00,0.066
610.50,0.065
611.00,0.065
611.50,0.065
612.00,0.065
612.50,0.065
613.00,0.064
613.50,0.064
614.00,0.064
614.50,0.064
615.00,0.063
615.50,0.063
616.00,0.063
616.50,0.063
617.00,0.063
617.50,0.062
618.00,0.062
618.50,0.062
619.00,0.062
619.50,0.061
620.00,0.061
620.50,0.061
621.00,0.061
621.50,0.061
622.00,0.061
622.50,0.060
623.00,0.060
623.50,0.060
624.00,0.060
624.50,0.060
625.00,0.059
625.50,0.059
626.00,0.059
626.50,0.059
627.00,0.059
627.50,0.058
628.00,0.058
628.50,0.058
629.00,0.058
629.50,0.058
630.00,0.058
630.50,0.057
631.00,0.057
631.50,0.057
632.00,0.057
632.50,0.057
633.00,0.057
633.50,0.056
634.00,0.056
634.50,0.056
635.00,0.056
635.50,0.056
636.00,0.055
636.50,0.055
637.00,0.055
637.50,0.055
638.00,0.055
638.50,0.055
639.00,0.054
639.50,0.054
640.00,0.054
640.50,0.054
641.00,0.054
641.50,0.054
642.00,0.053
642.50,0.053
643.00,0.053
643.50,0.053
644.00,0.053
644.50,0.053
645.00,0.053
645.50,0.052
646.00,0.052
646.50,0.052
647.00,0.052
647.50,0.052
648.00,0.052
648.50,0.052
649.00,0.051
649.50,0.051
650.00,0.051
650.50,0.051
651.00,0.051
651.50,0.051
652.00,0.051
652.50,0.051
653.00,0.050
653.50,0.050
654.00,0.050
654.50,0.050
655.00,0.050
655.50,0.050
656.00,0.050
656.50,0.049
657.00,0.049
657.50,0.049
658.00,0.049
658.50,0.049
659.00,0.049
659.50,0.049
660.00,0.049
660.50,0.048
661.00,0.048
661.50,0.048
662.00,0.048
662.50,0.048
663.00,0.048
663.50,0.048
664.00,0.048
664.50,0.048
665.00,0.047
665.50,0.047
666.00,0.047
666.50,0.047
667.00,0.047
667.50,0.047
668.00,0.047
668.50,0.047
669.00,0.047
669.50,0.046
670.00,0.046
670.50,0.046
671.00,0.046
671.50,0.046
672.00,0.046
672.50,0.046
673.00,0.046
673.50,0.046
674.00,0.045
674.50,0.045
675.00,0.045
675.50,0.045
676.00,0.045
676.50,0.045
677.00,0.045
677.50,0.045
678.00,0.045
678.50,0.044
679.00,0.044
679.50,0.044
680.00,0.044
680.50,0.044
681.00,0.044
681.50,0.044
682.00,0.044
682.50,0.044
683.00,0.044
683.50,0.043
684.00,0.043
684.50,0.043
685.00,0.043
685.50,0.043
686.00,0.043
686.50,0.043
687.00,0.043
687.50,0.043
688.00,0.043
688.50,0.042
689.00,0.042
689.50,0.042
690.00,0.042
690.50,0.042
691.00,0.042
691.50,0.042
692.00,0.042
692.50,0.042
693.00,0.042
693.50,0.042
694.00,0.041
694.50,0.041
695.00,0.041
695.50,0.041
696.00,0.041
696.50,0.041
697.00,0.041
697.50,0.041
698.00,0.041
698.50,0.041
699.00,0.041
699.50,0.040
700.00,0.040
700.50,0.040
701.00,0.040
701.50,0.040
702.00,0.040
702.50,0.040
703.00,0.040
703.50,0.040
704.00,0.040
704.50,0.040
705.00,0.039
705.50,0.039
706.00,0.039
706.50,0.039
707.00,0.039
707.50,0.039
708.00,0.039
708.50,0.039
709.00,0.039
709.50,0.039
710.00,0.039
710.50,0.039
711.00,0.039
711.50,0.039
712.00,0.039
712.50,0.039
713.00,0.039
713.50,0.038
714.00,0.038
714.50,0.038
715.00,0.038
715.50,0.038
716.00,0.038
716.50,0.038
717.00,0.038
717.50,0.038
718.00,0.038
718.50,0.038
719.00,0.038
719.50,0.038
720.00,0.038
720.50,0.038
721.00,0.038
721.50,0.038
722.00,0.038
722.50,0.037
723.00,0.037
723.50,0.037
724.00,0.037
724.50,0.037
725.00,0.037
725.50,0.037
726.00,0.037
726.50,0.037
727.00,0.037
727.50,0.037
728.00,0.037
728.50,0.037
729.00,0.036
729.50,0.036
730.00,0.036
730.50,0.036
731.00,0.036
731.50,0.036
732.00,0.036
732.50,0.036
733.00,0.036
733.50,0.036
734.00,0.036
734.50,0.036
735.00,0.036
735.50,0.036
736.00,0.036
736.50,0.036
737.00,0.035
737.50,0.035
738.00,0.035
738.50,0.035
739.00,0.035
739.50,0.035
740.00,0.035
740.50,0.035
741.00,0.035
741.50,0.035
742.00,0.035
742.50,0.035
743.00,0.035
743.50,0.035
744.00,0.035
744.50,0.034
745.00,0.034
745.50,0.034
746.00,0.034
746.50,0.034
747.00,0.034
747.50,0.034
748.00,0.034
748.50,0.034
749.00,0.034
749.50,0.034
750.00,0.034
750.50,0.034
751.00,0.034
751.50,0.033
752.00,0.033
752.50,0.033
753.00,0.033
753.50,0.033
754.00,0.033
754.50,0.033
755.00,0.033
755.50,0.033
756.00,0.033
756.50,0.033
757.00,0.033
757.50,0.033
758.00,0.033
758.50,0.033
759.00,0.032
759.50,0.032
760.00,0.032
760.50,0.032
761.00,0.032
761.50,0.032
762.00,0.032
762.50,0.032
763.00,0.032
763.50,0.032
764.00,0.032
764.50,0.032
765.00,0.032
765.50,0.032
766.00,0.032
766.50,0.032
767.00,0.031
767.50,0.031
768.00,0.031
768.50,0.031
769.00,0.031
769.50,0.031
770.00,0.031
770.50,0.031
771.00,0.031
771.50,0.031
772.00,0.031
772.50,0.031
773.00,0.031
773.50,0.031
774.00,0.031
774.50,0.031
775.00,0.031
775.50,0.031
776.00,0.030
776.50,0.030
777.00,0.030
777.50,0.030
778.00,0.030
778.50,0.030
779.00,0.030
779.50,0.030
780.00,0.030
780.50,0.030
781.00,0.030
781.50,0.030
782.00,0.030
782.50,0.030
783.00,0.030
783.50,0.030
784.00,0.030
784.50,0.030
785.00,0.030
785.50,0.030
786.00,0.030
786.50,0.029
787.00,0.029
787.50,0.029
788.00,0.029
788.50,0.029
789.00,0.029
789.50,0.029
790.00,0.029
790.50,0.029
791.00,0.029
791.50,0.029
792.00,0.029
792.50,0.029
793.00,0.029
793.50,0.029
794.00,0.029
794.50,0.029
795.00,0.029
795.50,0.029
796.00,0.029
796.50,0.029
797.00,0.029
797.50,0.029
798.00,0.029
798.50,0.028
799.00,0.028
799.50,0.028
800.00,0.028